acc,accuracy,average_response_time,avg_rt,background,batchId,batchTitle,bidi,canvas_backend,clock_backend,color_backend,compensation,componentId,componentPos,componentResultId,componentTitle,coordinates,correct,count_Goodbye_message,count_Instructions,count_ParticipantNumber,count_blank500,count_blank500_1,difficulty,count_difficult_loop,count_easy_loop,count_experiment,count_get_input_sequence,count_init,count_mind_wandering,count_mind_wandering_1,count_mw_1,count_mw_new_keyboard_response_1,count_new_keyboard_response,count_new_logger,count_new_sequence,count_new_sequence_1,count_new_sketchpad_2,count_number_input,count_osweb,count_process_input,count_shapes,count_shapes_1,count_shapes_new_keyboard_response,count_show_input,cr,datetime,description,disable_garbage_collection,empty_column,experiment_path,font_bold,font_family,font_italic,font_size,font_underline,foreground,form_clicks,fullscreen,groupMemberId,groupResultId,height,keyboard_backend,mouse_backend,multichar_response,mw,opensesame_codename,opensesame_version,response,response_Instructions,response_mind_wandering,response_numeric,response_mind_wandering_1,response_mw_1,response_mw_new_keyboard_response_1,response_new_keyboard_response,response_new_sketchpad_2,response_number_input,response_shapes_new_keyboard_response,response_time,response_time_Instructions,response_time_mind_wandering,response_time_mind_wandering_1,response_time_mw_1,response_time_mw_new_keyboard_response_1,response_time_new_keyboard_response,response_time_new_sketchpad_2,response_time_number_input,response_time_shapes_new_keyboard_response,round_decimals,sampler_backend,sessionid,shapes,sound_buf_size,sound_channels,sound_freq,sound_sample_size,start,studyId,studyResultId,studyTitle,subject_nr,subject_parity,time_Instructions,time_ParticipantNumber,time_blank500,time_blank500_1,time_difficult_loop,time_easy_loop,time_init,time_mind_wandering,time_mind_wandering_1,time_mw_1,time_mw_new_keyboard_response_1,time_new_keyboard_response,time_new_logger,time_new_sketchpad_2,time_number_input,time_process_input,time_shapes,time_shapes_1,time_shapes_new_keyboard_response,time_show_input,title,title_numeric,total_correct,total_response_time,total_responses,uniform_coordinates,width,workerId
0,0,1780,1780,white,138,Default,no,psycho,psycho,psycho,0,138,1,4961,OSWeb experiment,uniform,0,0,0,0,0,,easy,0,0,0,4,0,0,,,0,,0,0,,0,4,0,4,0,,0,4,,Fri Mar 19 2021 14:05:43 GMT+0000 (Greenwich Mean Time),The main experiment item,yes,,/Users/hannahwindmill/Desktop/OneDrive/PhD/Teaching/experiments/Z4,no,mono,no,18,no,black,no,no,None,null,768,psycho,psycho,0w7rs,1,osweb,1.3.3,None,space,,,,,,,,enter,None,816,27014,,,,,,,3438,816,2,psycho,1.61616E+12,Circle.jpg,1024,2,48000,-16,experiment,138,6796,Experiment 1,4961,odd,9984,45,37013,,45,45,31,,,,,,38856,,6533,9982,37522,,38039,6533,New experiment,1,0,10682,6,yes,1024,6668
0,0,1643,1643,white,138,Default,no,psycho,psycho,psycho,0,138,1,4961,OSWeb experiment,uniform,0,0,0,0,1,,easy,0,0,0,4,0,1,,,1,,1,1,,0,4,0,4,1,,1,4,,Fri Mar 19 2021 14:05:43 GMT+0000 (Greenwich Mean Time),The main experiment item,yes,,/Users/hannahwindmill/Desktop/OneDrive/PhD/Teaching/experiments/Z4,no,mono,no,18,no,black,no,no,None,null,768,psycho,psycho,0w7rs,1,osweb,1.3.3,None,space,,,,,,,,enter,None,817,27014,,,,,,,3438,817,2,psycho,1.61616E+12,Diamond.jpg,1024,2,48000,-16,experiment,138,6796,Experiment 1,4961,odd,9984,45,38861,,45,45,31,,,,,,40705,,6533,9982,39372,,39888,6533,New experiment,1,0,11499,7,yes,1024,6668
13,13,1442,1442,white,138,Default,no,psycho,psycho,psycho,0,138,1,4961,OSWeb experiment,uniform,1,0,0,0,2,,easy,0,0,0,4,0,2,,,2,,2,2,,0,4,0,4,2,,2,4,s,Fri Mar 19 2021 14:05:43 GMT+0000 (Greenwich Mean Time),The main experiment item,yes,,/Users/hannahwindmill/Desktop/OneDrive/PhD/Teaching/experiments/Z4,no,mono,no,18,no,black,no,no,None,null,768,psycho,psycho,0w7rs,1,osweb,1.3.3,s,space,,,,,,,,enter,s,34,27014,,,,,,,3438,34,2,psycho,1.61616E+12,Square.jpg,1024,2,48000,-16,experiment,138,6796,Experiment 1,4961,odd,9984,45,40709,,45,45,31,,,,,,41788,,6533,9982,41222,,41738,6533,New experiment,1,1,11533,8,yes,1024,6668
11,11,1372,1372,white,138,Default,no,psycho,psycho,psycho,0,138,1,4961,OSWeb experiment,uniform,0,0,0,0,3,,easy,0,0,0,4,0,3,,,3,,3,3,,0,4,0,4,3,,3,4,,Fri Mar 19 2021 14:05:43 GMT+0000 (Greenwich Mean Time),The main experiment item,yes,,/Users/hannahwindmill/Desktop/OneDrive/PhD/Teaching/experiments/Z4,no,mono,no,18,no,black,no,no,None,null,768,psycho,psycho,0w7rs,1,osweb,1.3.3,None,space,,,,,,,,enter,None,817,27014,,,,,,,3438,817,2,psycho,1.61616E+12,Star.jpg,1024,2,48000,-16,experiment,138,6796,Experiment 1,4961,odd,9984,45,41792,,45,45,31,,,,,,43638,,6533,9982,42306,,42821,6533,New experiment,1,1,12350,9,yes,1024,6668
10,10,1317,1317,white,138,Default,no,psycho,psycho,psycho,0,138,1,4961,OSWeb experiment,uniform,0,0,0,0,4,,easy,0,0,0,4,0,4,,,4,,4,4,,0,4,0,4,4,,4,4,,Fri Mar 19 2021 14:05:43 GMT+0000 (Greenwich Mean Time),The main experiment item,yes,,/Users/hannahwindmill/Desktop/OneDrive/PhD/Teaching/experiments/Z4,no,mono,no,18,no,black,no,no,None,null,768,psycho,psycho,0w7rs,1,osweb,1.3.3,None,space,,,,,,,,enter,None,816,27014,,,,,,,3438,816,2,psycho,1.61616E+12,Triangle.jpg,1024,2,48000,-16,experiment,138,6796,Experiment 1,4961,odd,9984,45,43642,,45,45,31,,,,,,45487,,6533,9982,44154,,44671,6533,New experiment,1,1,13166,10,yes,1024,6668
9,9,1271,1271,white,138,Default,no,psycho,psycho,psycho,0,138,1,4961,OSWeb experiment,uniform,0,0,0,0,5,,easy,0,0,0,4,0,5,,,5,,5,5,,0,4,0,4,5,,5,4,,Fri Mar 19 2021 14:05:43 GMT+0000 (Greenwich Mean Time),The main experiment item,yes,,/Users/hannahwindmill/Desktop/OneDrive/PhD/Teaching/experiments/Z4,no,mono,no,18,no,black,no,no,None,null,768,psycho,psycho,0w7rs,1,osweb,1.3.3,None,space,,,,,,,,enter,None,817,27014,,,,,,,3438,817,2,psycho,1.61616E+12,Circle.jpg,1024,2,48000,-16,experiment,138,6796,Experiment 1,4961,odd,9984,45,45491,,45,45,31,,,,,,47337,,6533,9982,46004,,46520,6533,New experiment,1,1,13983,11,yes,1024,6668
8,8,1233,1233,white,138,Default,no,psycho,psycho,psycho,0,138,1,4961,OSWeb experiment,uniform,0,0,0,0,6,,easy,0,0,0,4,0,6,,,6,,6,6,,0,4,0,4,6,,6,4,,Fri Mar 19 2021 14:05:43 GMT+0000 (Greenwich Mean Time),The main experiment item,yes,,/Users/hannahwindmill/Desktop/OneDrive/PhD/Teaching/experiments/Z4,no,mono,no,18,no,black,no,no,None,null,768,psycho,psycho,0w7rs,1,osweb,1.3.3,None,space,,,,,,,,enter,None,817,27014,,,,,,,3438,817,2,psycho,1.61616E+12,Diamond.jpg,1024,2,48000,-16,experiment,138,6796,Experiment 1,4961,odd,9984,45,47341,,45,45,31,,,,,,49187,,6533,9982,47854,,48370,6533,New experiment,1,1,14800,12,yes,1024,6668
15,15,1139,1139,white,138,Default,no,psycho,psycho,psycho,0,138,1,4961,OSWeb experiment,uniform,1,0,0,0,7,,easy,0,0,0,4,0,7,,,7,,7,7,,0,4,0,4,7,,7,4,s,Fri Mar 19 2021 14:05:43 GMT+0000 (Greenwich Mean Time),The main experiment item,yes,,/Users/hannahwindmill/Desktop/OneDrive/PhD/Teaching/experiments/Z4,no,mono,no,18,no,black,no,no,None,null,768,psycho,psycho,0w7rs,1,osweb,1.3.3,s,space,,,,,,,,enter,s,9,27014,,,,,,,3438,9,2,psycho,1.61616E+12,Square.jpg,1024,2,48000,-16,experiment,138,6796,Experiment 1,4961,odd,9984,45,49197,,45,45,31,,,,,,50236,,6533,9982,49703,,50220,6533,New experiment,1,2,14809,13,yes,1024,6668
13,13,1095,1095,white,138,Default,no,psycho,psycho,psycho,0,138,1,4961,OSWeb experiment,uniform,0,0,0,0,9,,easy,0,0,0,4,0,9,,,9,,9,9,,0,4,0,4,9,,9,4,,Fri Mar 19 2021 14:05:43 GMT+0000 (Greenwich Mean Time),The main experiment item,yes,,/Users/hannahwindmill/Desktop/OneDrive/PhD/Teaching/experiments/Z4,no,mono,no,18,no,black,no,no,None,null,768,psycho,psycho,0w7rs,1,osweb,1.3.3,None,space,,,,,,,,enter,None,801,27014,,,,,,,3438,801,2,psycho,1.61616E+12,Triangle.jpg,1024,2,48000,-16,experiment,138,6796,Experiment 1,4961,odd,9984,45,52090,,45,45,31,,,,,,53920,,6533,9982,52603,,53119,6533,New experiment,1,2,16427,15,yes,1024,6668
13,13,1078,1078,white,138,Default,no,psycho,psycho,psycho,0,138,1,4961,OSWeb experiment,uniform,0,0,0,0,10,,easy,0,0,0,4,0,10,,,10,,10,10,,0,4,0,4,10,,10,4,,Fri Mar 19 2021 14:05:43 GMT+0000 (Greenwich Mean Time),The main experiment item,yes,,/Users/hannahwindmill/Desktop/OneDrive/PhD/Teaching/experiments/Z4,no,mono,no,18,no,black,no,no,None,null,768,psycho,psycho,0w7rs,1,osweb,1.3.3,None,space,,,,,,,,enter,None,817,27014,,,,,,,3438,817,2,psycho,1.61616E+12,Circle.jpg,1024,2,48000,-16,experiment,138,6796,Experiment 1,4961,odd,9984,45,53924,,45,45,31,,,,,,55769,,6533,9982,54435,,54952,6533,New experiment,1,2,17244,16,yes,1024,6668
12,12,1062,1062,white,138,Default,no,psycho,psycho,psycho,0,138,1,4961,OSWeb experiment,uniform,0,0,0,0,11,,easy,0,0,0,4,0,11,,,11,,11,11,,0,4,0,4,11,,11,4,,Fri Mar 19 2021 14:05:43 GMT+0000 (Greenwich Mean Time),The main experiment item,yes,,/Users/hannahwindmill/Desktop/OneDrive/PhD/Teaching/experiments/Z4,no,mono,no,18,no,black,no,no,None,null,768,psycho,psycho,0w7rs,1,osweb,1.3.3,None,space,,,,,,,,enter,None,816,27014,,,,,,,3438,816,2,psycho,1.61616E+12,Diamond.jpg,1024,2,48000,-16,experiment,138,6796,Experiment 1,4961,odd,9984,45,55772,,45,45,31,,,,,,57618,,6533,9982,56285,,56802,6533,New experiment,1,2,18060,17,yes,1024,6668
17,17,1005,1005,white,138,Default,no,psycho,psycho,psycho,0,138,1,4961,OSWeb experiment,uniform,1,0,0,0,12,,easy,0,0,0,4,0,12,,,12,,12,12,,0,4,0,4,12,,12,4,s,Fri Mar 19 2021 14:05:43 GMT+0000 (Greenwich Mean Time),The main experiment item,yes,,/Users/hannahwindmill/Desktop/OneDrive/PhD/Teaching/experiments/Z4,no,mono,no,18,no,black,no,no,None,null,768,psycho,psycho,0w7rs,1,osweb,1.3.3,s,space,,,,,,,,enter,s,31,27014,,,,,,,3438,31,2,psycho,1.61616E+12,Square.jpg,1024,2,48000,-16,experiment,138,6796,Experiment 1,4961,odd,9984,45,57623,,45,45,31,,,,,,58685,,6533,9982,58135,,58651,6533,New experiment,1,3,18091,18,yes,1024,6668
16,16,995,995,white,138,Default,no,psycho,psycho,psycho,0,138,1,4961,OSWeb experiment,uniform,0,0,0,0,13,,easy,0,0,0,4,0,13,,,13,,13,13,,0,4,0,4,13,,13,4,,Fri Mar 19 2021 14:05:43 GMT+0000 (Greenwich Mean Time),The main experiment item,yes,,/Users/hannahwindmill/Desktop/OneDrive/PhD/Teaching/experiments/Z4,no,mono,no,18,no,black,no,no,None,null,768,psycho,psycho,0w7rs,1,osweb,1.3.3,None,space,,,,,,,,enter,None,815,27014,,,,,,,3438,815,2,psycho,1.61616E+12,Star.jpg,1024,2,48000,-16,experiment,138,6796,Experiment 1,4961,odd,9984,45,58689,,45,45,31,,,,,,60534,,6533,9982,59203,,59719,6533,New experiment,1,3,18906,19,yes,1024,6668
14,14,1045,1045,white,138,Default,no,psycho,psycho,psycho,0,138,1,4961,OSWeb experiment,uniform,0,0,0,0,14,,easy,0,0,0,4,0,14,,,14,,14,14,,0,4,0,4,14,,14,4,,Fri Mar 19 2021 14:05:43 GMT+0000 (Greenwich Mean Time),The main experiment item,yes,,/Users/hannahwindmill/Desktop/OneDrive/PhD/Teaching/experiments/Z4,no,mono,no,18,no,black,no,no,None,null,768,psycho,psycho,0w7rs,1,osweb,1.3.3,n,space,n,0,,,n,,,enter,None,2223,27014,2702,,,2223,,,3438,816,2,psycho,1.61616E+12,Triangle.jpg,1024,2,48000,-16,experiment,138,6796,Experiment 1,4961,odd,9984,45,60542,,45,45,31,62384,,,65101,,67333,,6533,9982,61052,,61568,6533,New experiment,1,3,21945,21,yes,1024,6668
14,14,1035,1035,white,138,Default,no,psycho,psycho,psycho,0,138,1,4961,OSWeb experiment,uniform,0,0,0,0,15,,easy,0,0,0,4,0,15,,,15,,15,15,,0,4,0,4,15,,15,4,,Fri Mar 19 2021 14:05:43 GMT+0000 (Greenwich Mean Time),The main experiment item,yes,,/Users/hannahwindmill/Desktop/OneDrive/PhD/Teaching/experiments/Z4,no,mono,no,18,no,black,no,no,None,null,768,psycho,psycho,0w7rs,1,osweb,1.3.3,None,space,n,0,,,n,,,enter,None,817,27014,2702,,,2223,,,3438,817,2,psycho,1.61616E+12,Circle.jpg,1024,2,48000,-16,experiment,138,6796,Experiment 1,4961,odd,9984,45,67337,,45,45,31,62384,,,65101,,69184,,6533,9982,67850,,68367,6533,New experiment,1,3,22762,22,yes,1024,6668
13,13,1025,1025,white,138,Default,no,psycho,psycho,psycho,0,138,1,4961,OSWeb experiment,uniform,0,0,0,0,16,,easy,0,0,0,4,0,16,,,16,,16,16,,0,4,0,4,16,,16,4,,Fri Mar 19 2021 14:05:43 GMT+0000 (Greenwich Mean Time),The main experiment item,yes,,/Users/hannahwindmill/Desktop/OneDrive/PhD/Teaching/experiments/Z4,no,mono,no,18,no,black,no,no,None,null,768,psycho,psycho,0w7rs,1,osweb,1.3.3,None,space,n,0,,,n,,,enter,None,816,27014,2702,,,2223,,,3438,816,2,psycho,1.61616E+12,Diamond.jpg,1024,2,48000,-16,experiment,138,6796,Experiment 1,4961,odd,9984,45,69188,,45,45,31,62384,,,65101,,71032,,6533,9982,69700,,70216,6533,New experiment,1,3,23578,23,yes,1024,6668
17,17,991,991,white,138,Default,no,psycho,psycho,psycho,0,138,1,4961,OSWeb experiment,uniform,1,0,0,0,17,,easy,0,0,0,4,0,17,,,17,,17,17,,0,4,0,4,17,,17,4,s,Fri Mar 19 2021 14:05:43 GMT+0000 (Greenwich Mean Time),The main experiment item,yes,,/Users/hannahwindmill/Desktop/OneDrive/PhD/Teaching/experiments/Z4,no,mono,no,18,no,black,no,no,None,null,768,psycho,psycho,0w7rs,1,osweb,1.3.3,s,space,n,0,,,n,,,enter,s,203,27014,2702,,,2223,,,3438,203,2,psycho,1.61616E+12,Square.jpg,1024,2,48000,-16,experiment,138,6796,Experiment 1,4961,odd,9984,45,71037,,45,45,31,62384,,,65101,,72282,,6533,9982,71549,,72065,6533,New experiment,1,4,23781,24,yes,1024,6668
16,16,984,984,white,138,Default,no,psycho,psycho,psycho,0,138,1,4961,OSWeb experiment,uniform,0,0,0,0,18,,easy,0,0,0,4,0,18,,,18,,18,18,,0,4,0,4,18,,18,4,,Fri Mar 19 2021 14:05:43 GMT+0000 (Greenwich Mean Time),The main experiment item,yes,,/Users/hannahwindmill/Desktop/OneDrive/PhD/Teaching/experiments/Z4,no,mono,no,18,no,black,no,no,None,null,768,psycho,psycho,0w7rs,1,osweb,1.3.3,None,space,n,0,,,n,,,enter,None,817,27014,2702,,,2223,,,3438,817,2,psycho,1.61616E+12,Star.jpg,1024,2,48000,-16,experiment,138,6796,Experiment 1,4961,odd,9984,45,72286,,45,45,31,62384,,,65101,,74132,,6533,9982,72799,,73315,6533,New experiment,1,4,24598,25,yes,1024,6668
15,15,977,977,white,138,Default,no,psycho,psycho,psycho,0,138,1,4961,OSWeb experiment,uniform,0,0,0,0,19,,easy,0,0,0,4,0,19,,,19,,19,19,,0,4,0,4,19,,19,4,,Fri Mar 19 2021 14:05:43 GMT+0000 (Greenwich Mean Time),The main experiment item,yes,,/Users/hannahwindmill/Desktop/OneDrive/PhD/Teaching/experiments/Z4,no,mono,no,18,no,black,no,no,None,null,768,psycho,psycho,0w7rs,1,osweb,1.3.3,None,space,n,0,,,n,,,enter,None,815,27014,2702,,,2223,,,3438,815,2,psycho,1.61616E+12,Triangle.jpg,1024,2,48000,-16,experiment,138,6796,Experiment 1,4961,odd,9984,45,74141,,45,45,31,62384,,,65101,,75981,,6533,9982,74648,,75166,6533,New experiment,1,4,25413,26,yes,1024,6668
15,15,971,971,white,138,Default,no,psycho,psycho,psycho,0,138,1,4961,OSWeb experiment,uniform,0,0,0,0,20,,easy,0,0,0,4,0,20,,,20,,20,20,,0,4,0,4,20,,20,4,,Fri Mar 19 2021 14:05:43 GMT+0000 (Greenwich Mean Time),The main experiment item,yes,,/Users/hannahwindmill/Desktop/OneDrive/PhD/Teaching/experiments/Z4,no,mono,no,18,no,black,no,no,None,null,768,psycho,psycho,0w7rs,1,osweb,1.3.3,None,space,n,0,,,n,,,enter,None,816,27014,2702,,,2223,,,3438,816,2,psycho,1.61616E+12,Circle.jpg,1024,2,48000,-16,experiment,138,6796,Experiment 1,4961,odd,9984,45,75985,,45,45,31,62384,,,65101,,77831,,6533,9982,76498,,77015,6533,New experiment,1,4,26229,27,yes,1024,6668
14,14,966,966,white,138,Default,no,psycho,psycho,psycho,0,138,1,4961,OSWeb experiment,uniform,0,0,0,0,21,,easy,0,0,0,4,0,21,,,21,,21,21,,0,4,0,4,21,,21,4,,Fri Mar 19 2021 14:05:43 GMT+0000 (Greenwich Mean Time),The main experiment item,yes,,/Users/hannahwindmill/Desktop/OneDrive/PhD/Teaching/experiments/Z4,no,mono,no,18,no,black,no,no,None,null,768,psycho,psycho,0w7rs,1,osweb,1.3.3,None,space,n,0,,,n,,,enter,None,817,27014,2702,,,2223,,,3438,817,2,psycho,1.61616E+12,Diamond.jpg,1024,2,48000,-16,experiment,138,6796,Experiment 1,4961,odd,9984,45,77835,,45,45,31,62384,,,65101,,79681,,6533,9982,78348,,78864,6533,New experiment,1,4,27046,28,yes,1024,6668
17,17,934,934,white,138,Default,no,psycho,psycho,psycho,0,138,1,4961,OSWeb experiment,uniform,1,0,0,0,22,,easy,0,0,0,4,0,22,,,22,,22,22,,0,4,0,4,22,,22,4,s,Fri Mar 19 2021 14:05:43 GMT+0000 (Greenwich Mean Time),The main experiment item,yes,,/Users/hannahwindmill/Desktop/OneDrive/PhD/Teaching/experiments/Z4,no,mono,no,18,no,black,no,no,None,null,768,psycho,psycho,0w7rs,1,osweb,1.3.3,s,space,n,0,,,n,,,enter,s,41,27014,2702,,,2223,,,3438,41,2,psycho,1.61616E+12,Square.jpg,1024,2,48000,-16,experiment,138,6796,Experiment 1,4961,odd,9984,45,79685,,45,45,31,62384,,,65101,,80765,,6533,9982,80198,,80714,6533,New experiment,1,5,27087,29,yes,1024,6668
17,17,930,930,white,138,Default,no,psycho,psycho,psycho,0,138,1,4961,OSWeb experiment,uniform,0,0,0,0,23,,easy,0,0,0,4,0,23,,,23,,23,23,,0,4,0,4,23,,23,4,,Fri Mar 19 2021 14:05:43 GMT+0000 (Greenwich Mean Time),The main experiment item,yes,,/Users/hannahwindmill/Desktop/OneDrive/PhD/Teaching/experiments/Z4,no,mono,no,18,no,black,no,no,None,null,768,psycho,psycho,0w7rs,1,osweb,1.3.3,None,space,n,0,,,n,,,enter,None,816,27014,2702,,,2223,,,3438,816,2,psycho,1.61616E+12,Star.jpg,1024,2,48000,-16,experiment,138,6796,Experiment 1,4961,odd,9984,45,80768,,45,45,31,62384,,,65101,,82614,,6533,9982,81281,,81797,6533,New experiment,1,5,27903,30,yes,1024,6668
16,16,926,926,white,138,Default,no,psycho,psycho,psycho,0,138,1,4961,OSWeb experiment,uniform,0,0,0,0,24,,easy,0,0,0,4,0,24,,,24,,24,24,,0,4,0,4,24,,24,4,,Fri Mar 19 2021 14:05:43 GMT+0000 (Greenwich Mean Time),The main experiment item,yes,,/Users/hannahwindmill/Desktop/OneDrive/PhD/Teaching/experiments/Z4,no,mono,no,18,no,black,no,no,None,null,768,psycho,psycho,0w7rs,1,osweb,1.3.3,None,space,n,0,,,n,,,enter,None,816,27014,2702,,,2223,,,3438,816,2,psycho,1.61616E+12,Triangle.jpg,1024,2,48000,-16,experiment,138,6796,Experiment 1,4961,odd,9984,45,82619,,45,45,31,62384,,,65101,,84463,,6533,9982,83130,,83647,6533,New experiment,1,5,28719,31,yes,1024,6668
16,16,923,923,white,138,Default,no,psycho,psycho,psycho,0,138,1,4961,OSWeb experiment,uniform,0,0,0,0,25,,easy,0,0,0,4,0,25,,,25,,25,25,,0,4,0,4,25,,25,4,,Fri Mar 19 2021 14:05:43 GMT+0000 (Greenwich Mean Time),The main experiment item,yes,,/Users/hannahwindmill/Desktop/OneDrive/PhD/Teaching/experiments/Z4,no,mono,no,18,no,black,no,no,None,null,768,psycho,psycho,0w7rs,1,osweb,1.3.3,None,space,n,0,,,n,,,enter,None,817,27014,2702,,,2223,,,3438,817,2,psycho,1.61616E+12,Circle.jpg,1024,2,48000,-16,experiment,138,6796,Experiment 1,4961,odd,9984,45,84467,,45,45,31,62384,,,65101,,86313,,6533,9982,84980,,85496,6533,New experiment,1,5,29536,32,yes,1024,6668
15,15,920,920,white,138,Default,no,psycho,psycho,psycho,0,138,1,4961,OSWeb experiment,uniform,0,0,0,0,26,,easy,0,0,0,4,0,26,,,26,,26,26,,0,4,0,4,26,,26,4,,Fri Mar 19 2021 14:05:43 GMT+0000 (Greenwich Mean Time),The main experiment item,yes,,/Users/hannahwindmill/Desktop/OneDrive/PhD/Teaching/experiments/Z4,no,mono,no,18,no,black,no,no,None,null,768,psycho,psycho,0w7rs,1,osweb,1.3.3,None,space,n,0,,,n,,,enter,None,816,27014,2702,,,2223,,,3438,816,2,psycho,1.61616E+12,Diamond.jpg,1024,2,48000,-16,experiment,138,6796,Experiment 1,4961,odd,9984,45,86317,,45,45,31,62384,,,65101,,88162,,6533,9982,86830,,87346,6533,New experiment,1,5,30352,33,yes,1024,6668
15,15,917,917,white,138,Default,no,psycho,psycho,psycho,0,138,1,4961,OSWeb experiment,uniform,0,0,0,0,27,,easy,0,0,0,4,0,27,,,27,,27,27,,0,4,0,4,27,,27,4,s,Fri Mar 19 2021 14:05:43 GMT+0000 (Greenwich Mean Time),The main experiment item,yes,,/Users/hannahwindmill/Desktop/OneDrive/PhD/Teaching/experiments/Z4,no,mono,no,18,no,black,no,no,None,null,768,psycho,psycho,0w7rs,1,osweb,1.3.3,None,space,n,0,,,n,,,enter,None,816,27014,2702,,,2223,,,3438,816,2,psycho,1.61616E+12,Square.jpg,1024,2,48000,-16,experiment,138,6796,Experiment 1,4961,odd,9984,45,88166,,45,45,31,62384,,,65101,,90012,,6533,9982,88679,,89196,6533,New experiment,1,5,31168,34,yes,1024,6668
14,14,914,914,white,138,Default,no,psycho,psycho,psycho,0,138,1,4961,OSWeb experiment,uniform,0,0,0,0,28,,easy,0,0,0,4,0,28,,,28,,28,28,,0,4,0,4,28,,28,4,,Fri Mar 19 2021 14:05:43 GMT+0000 (Greenwich Mean Time),The main experiment item,yes,,/Users/hannahwindmill/Desktop/OneDrive/PhD/Teaching/experiments/Z4,no,mono,no,18,no,black,no,no,None,null,768,psycho,psycho,0w7rs,1,osweb,1.3.3,None,space,n,0,,,n,,,enter,None,817,27014,2702,,,2223,,,3438,817,2,psycho,1.61616E+12,Star.jpg,1024,2,48000,-16,experiment,138,6796,Experiment 1,4961,odd,9984,45,90021,,45,45,31,62384,,,65101,,91862,,6533,9982,90529,,91045,6533,New experiment,1,5,31985,35,yes,1024,6668
14,14,914,914,white,138,Default,no,psycho,psycho,psycho,0,138,1,4961,OSWeb experiment,uniform,0,0,0,0,29,,easy,0,0,0,4,0,29,,,29,,29,29,,0,4,0,4,29,,29,4,,Fri Mar 19 2021 14:05:43 GMT+0000 (Greenwich Mean Time),The main experiment item,yes,,/Users/hannahwindmill/Desktop/OneDrive/PhD/Teaching/experiments/Z4,no,mono,no,18,no,black,no,no,None,null,768,psycho,psycho,0w7rs,1,osweb,1.3.3,y,space,y,1,,,y,,,enter,None,999,27014,3509,,,999,,,3438,816,2,psycho,1.61616E+12,Triangle.jpg,1024,2,48000,-16,experiment,138,6796,Experiment 1,4961,odd,9984,45,91866,,45,45,31,93712,,,97228,,98227,,6533,9982,92379,,92895,6533,New experiment,1,5,33800,37,yes,1024,6668
13,13,911,911,white,138,Default,no,psycho,psycho,psycho,0,138,1,4961,OSWeb experiment,uniform,0,0,0,0,30,,easy,0,0,0,4,0,30,,,30,,30,30,,0,4,0,4,30,,30,4,,Fri Mar 19 2021 14:05:43 GMT+0000 (Greenwich Mean Time),The main experiment item,yes,,/Users/hannahwindmill/Desktop/OneDrive/PhD/Teaching/experiments/Z4,no,mono,no,18,no,black,no,no,None,null,768,psycho,psycho,0w7rs,1,osweb,1.3.3,None,space,y,1,,,y,,,enter,None,817,27014,3509,,,999,,,3438,817,2,psycho,1.61616E+12,Circle.jpg,1024,2,48000,-16,experiment,138,6796,Experiment 1,4961,odd,9984,45,98232,,45,45,31,93712,,,97228,,100077,,6533,9982,98744,,99260,6533,New experiment,1,5,34617,38,yes,1024,6668
13,13,909,909,white,138,Default,no,psycho,psycho,psycho,0,138,1,4961,OSWeb experiment,uniform,0,0,0,0,31,,easy,0,0,0,4,0,31,,,31,,31,31,,0,4,0,4,31,,31,4,,Fri Mar 19 2021 14:05:43 GMT+0000 (Greenwich Mean Time),The main experiment item,yes,,/Users/hannahwindmill/Desktop/OneDrive/PhD/Teaching/experiments/Z4,no,mono,no,18,no,black,no,no,None,null,768,psycho,psycho,0w7rs,1,osweb,1.3.3,None,space,y,1,,,y,,,enter,None,816,27014,3509,,,999,,,3438,816,2,psycho,1.61616E+12,Diamond.jpg,1024,2,48000,-16,experiment,138,6796,Experiment 1,4961,odd,9984,45,100081,,45,45,31,93712,,,97228,,101927,,6533,9982,100594,,101110,6533,New experiment,1,5,35433,39,yes,1024,6668
15,15,893,893,white,138,Default,no,psycho,psycho,psycho,0,138,1,4961,OSWeb experiment,uniform,1,0,0,0,32,,easy,0,0,0,4,0,32,,,32,,32,32,,0,4,0,4,32,,32,4,s,Fri Mar 19 2021 14:05:43 GMT+0000 (Greenwich Mean Time),The main experiment item,yes,,/Users/hannahwindmill/Desktop/OneDrive/PhD/Teaching/experiments/Z4,no,mono,no,18,no,black,no,no,None,null,768,psycho,psycho,0w7rs,1,osweb,1.3.3,s,space,y,1,,,y,,,enter,s,289,27014,3509,,,999,,,3438,289,2,psycho,1.61616E+12,Square.jpg,1024,2,48000,-16,experiment,138,6796,Experiment 1,4961,odd,9984,45,101931,,45,45,31,93712,,,97228,,103260,,6533,9982,102443,,102960,6533,New experiment,1,6,35722,40,yes,1024,6668
15,15,891,891,white,138,Default,no,psycho,psycho,psycho,0,138,1,4961,OSWeb experiment,uniform,0,0,0,0,33,,easy,0,0,0,4,0,33,,,33,,33,33,,0,4,0,4,33,,33,4,,Fri Mar 19 2021 14:05:43 GMT+0000 (Greenwich Mean Time),The main experiment item,yes,,/Users/hannahwindmill/Desktop/OneDrive/PhD/Teaching/experiments/Z4,no,mono,no,18,no,black,no,no,None,null,768,psycho,psycho,0w7rs,1,osweb,1.3.3,None,space,y,1,,,y,,,enter,None,816,27014,3509,,,999,,,3438,816,2,psycho,1.61616E+12,Star.jpg,1024,2,48000,-16,experiment,138,6796,Experiment 1,4961,odd,9984,45,103263,,45,45,31,93712,,,97228,,105109,,6533,9982,103776,,104293,6533,New experiment,1,6,36538,41,yes,1024,6668
14,14,889,889,white,138,Default,no,psycho,psycho,psycho,0,138,1,4961,OSWeb experiment,uniform,0,0,0,0,34,,easy,0,0,0,4,0,34,,,34,,34,34,,0,4,0,4,34,,34,4,,Fri Mar 19 2021 14:05:43 GMT+0000 (Greenwich Mean Time),The main experiment item,yes,,/Users/hannahwindmill/Desktop/OneDrive/PhD/Teaching/experiments/Z4,no,mono,no,18,no,black,no,no,None,null,768,psycho,psycho,0w7rs,1,osweb,1.3.3,None,space,y,1,,,y,,,enter,None,817,27014,3509,,,999,,,3438,817,2,psycho,1.61616E+12,Triangle.jpg,1024,2,48000,-16,experiment,138,6796,Experiment 1,4961,odd,9984,45,105113,,45,45,31,93712,,,97228,,106959,,6533,9982,105626,,106142,6533,New experiment,1,6,37355,42,yes,1024,6668
14,14,888,888,white,138,Default,no,psycho,psycho,psycho,0,138,1,4961,OSWeb experiment,uniform,0,0,0,0,35,,easy,0,0,0,4,0,35,,,35,,35,35,,0,4,0,4,35,,35,4,,Fri Mar 19 2021 14:05:43 GMT+0000 (Greenwich Mean Time),The main experiment item,yes,,/Users/hannahwindmill/Desktop/OneDrive/PhD/Teaching/experiments/Z4,no,mono,no,18,no,black,no,no,None,null,768,psycho,psycho,0w7rs,1,osweb,1.3.3,None,space,y,1,,,y,,,enter,None,816,27014,3509,,,999,,,3438,816,2,psycho,1.61616E+12,Circle.jpg,1024,2,48000,-16,experiment,138,6796,Experiment 1,4961,odd,9984,45,106963,,45,45,31,93712,,,97228,,108809,,6533,9982,107476,,107992,6533,New experiment,1,6,38171,43,yes,1024,6668
14,14,886,886,white,138,Default,no,psycho,psycho,psycho,0,138,1,4961,OSWeb experiment,uniform,0,0,0,0,36,,easy,0,0,0,4,0,36,,,36,,36,36,,0,4,0,4,36,,36,4,,Fri Mar 19 2021 14:05:43 GMT+0000 (Greenwich Mean Time),The main experiment item,yes,,/Users/hannahwindmill/Desktop/OneDrive/PhD/Teaching/experiments/Z4,no,mono,no,18,no,black,no,no,None,null,768,psycho,psycho,0w7rs,1,osweb,1.3.3,None,space,y,1,,,y,,,enter,None,816,27014,3509,,,999,,,3438,816,2,psycho,1.61616E+12,Diamond.jpg,1024,2,48000,-16,experiment,138,6796,Experiment 1,4961,odd,9984,45,108813,,45,45,31,93712,,,97228,,110658,,6533,9982,109325,,109842,6533,New experiment,1,6,38987,44,yes,1024,6668
16,16,868,868,white,138,Default,no,psycho,psycho,psycho,0,138,1,4961,OSWeb experiment,uniform,1,0,0,0,37,,easy,0,0,0,4,0,37,,,37,,37,37,,0,4,0,4,37,,37,4,s,Fri Mar 19 2021 14:05:43 GMT+0000 (Greenwich Mean Time),The main experiment item,yes,,/Users/hannahwindmill/Desktop/OneDrive/PhD/Teaching/experiments/Z4,no,mono,no,18,no,black,no,no,None,null,768,psycho,psycho,0w7rs,1,osweb,1.3.3,s,space,y,1,,,y,,,enter,s,70,27014,3509,,,999,,,3438,70,2,psycho,1.61616E+12,Square.jpg,1024,2,48000,-16,experiment,138,6796,Experiment 1,4961,odd,9984,45,110662,,45,45,31,93712,,,97228,,111775,,6533,9982,111175,,111691,6533,New experiment,1,7,39057,45,yes,1024,6668
15,15,867,867,white,138,Default,no,psycho,psycho,psycho,0,138,1,4961,OSWeb experiment,uniform,0,0,0,0,38,,easy,0,0,0,4,0,38,,,38,,38,38,,0,4,0,4,38,,38,4,,Fri Mar 19 2021 14:05:43 GMT+0000 (Greenwich Mean Time),The main experiment item,yes,,/Users/hannahwindmill/Desktop/OneDrive/PhD/Teaching/experiments/Z4,no,mono,no,18,no,black,no,no,None,null,768,psycho,psycho,0w7rs,1,osweb,1.3.3,None,space,y,1,,,y,,,enter,None,816,27014,3509,,,999,,,3438,816,2,psycho,1.61616E+12,Star.jpg,1024,2,48000,-16,experiment,138,6796,Experiment 1,4961,odd,9984,45,111778,,45,45,31,93712,,,97228,,113624,,6533,9982,112293,,112808,6533,New experiment,1,7,39873,46,yes,1024,6668
15,15,866,866,white,138,Default,no,psycho,psycho,psycho,0,138,1,4961,OSWeb experiment,uniform,0,0,0,0,39,,easy,0,0,0,4,0,39,,,39,,39,39,,0,4,0,4,39,,39,4,,Fri Mar 19 2021 14:05:43 GMT+0000 (Greenwich Mean Time),The main experiment item,yes,,/Users/hannahwindmill/Desktop/OneDrive/PhD/Teaching/experiments/Z4,no,mono,no,18,no,black,no,no,None,null,768,psycho,psycho,0w7rs,1,osweb,1.3.3,None,space,y,1,,,y,,,enter,None,817,27014,3509,,,999,,,3438,817,2,psycho,1.61616E+12,Triangle.jpg,1024,2,48000,-16,experiment,138,6796,Experiment 1,4961,odd,9984,45,113633,,45,45,31,93712,,,97228,,115474,,6533,9982,114141,,114657,6533,New experiment,1,7,40690,47,yes,1024,6668
15,15,865,865,white,138,Default,no,psycho,psycho,psycho,0,138,1,4961,OSWeb experiment,uniform,0,0,0,0,40,,easy,0,0,0,4,0,40,,,40,,40,40,,0,4,0,4,40,,40,4,,Fri Mar 19 2021 14:05:43 GMT+0000 (Greenwich Mean Time),The main experiment item,yes,,/Users/hannahwindmill/Desktop/OneDrive/PhD/Teaching/experiments/Z4,no,mono,no,18,no,black,no,no,None,null,768,psycho,psycho,0w7rs,1,osweb,1.3.3,None,space,y,1,,,y,,,enter,None,817,27014,3509,,,999,,,3438,817,2,psycho,1.61616E+12,Circle.jpg,1024,2,48000,-16,experiment,138,6796,Experiment 1,4961,odd,9984,45,115478,,45,45,31,93712,,,97228,,117324,,6533,9982,115991,,116507,6533,New experiment,1,7,41507,48,yes,1024,6668
14,14,864,864,white,138,Default,no,psycho,psycho,psycho,0,138,1,4961,OSWeb experiment,uniform,0,0,0,0,41,,easy,0,0,0,4,0,41,,,41,,41,41,,0,4,0,4,41,,41,4,,Fri Mar 19 2021 14:05:43 GMT+0000 (Greenwich Mean Time),The main experiment item,yes,,/Users/hannahwindmill/Desktop/OneDrive/PhD/Teaching/experiments/Z4,no,mono,no,18,no,black,no,no,None,null,768,psycho,psycho,0w7rs,1,osweb,1.3.3,None,space,y,1,,,y,,,enter,None,816,27014,3509,,,999,,,3438,816,2,psycho,1.61616E+12,Diamond.jpg,1024,2,48000,-16,experiment,138,6796,Experiment 1,4961,odd,9984,45,117328,,45,45,31,93712,,,97228,,119173,,6533,9982,117840,,118357,6533,New experiment,1,7,42323,49,yes,1024,6668
16,16,848,848,white,138,Default,no,psycho,psycho,psycho,0,138,1,4961,OSWeb experiment,uniform,1,0,0,0,42,,easy,0,0,0,4,0,42,,,42,,42,42,,0,4,0,4,42,,42,4,s,Fri Mar 19 2021 14:05:43 GMT+0000 (Greenwich Mean Time),The main experiment item,yes,,/Users/hannahwindmill/Desktop/OneDrive/PhD/Teaching/experiments/Z4,no,mono,no,18,no,black,no,no,None,null,768,psycho,psycho,0w7rs,1,osweb,1.3.3,s,space,y,1,,,y,,,enter,s,73,27014,3509,,,999,,,3438,73,2,psycho,1.61616E+12,Square.jpg,1024,2,48000,-16,experiment,138,6796,Experiment 1,4961,odd,9984,45,119178,,45,45,31,93712,,,97228,,120290,,6533,9982,119690,,120206,6533,New experiment,1,8,42396,50,yes,1024,6668
16,16,847,847,white,138,Default,no,psycho,psycho,psycho,0,138,1,4961,OSWeb experiment,uniform,0,0,0,0,43,,easy,0,0,0,4,0,43,,,43,,43,43,,0,4,0,4,43,,43,4,,Fri Mar 19 2021 14:05:43 GMT+0000 (Greenwich Mean Time),The main experiment item,yes,,/Users/hannahwindmill/Desktop/OneDrive/PhD/Teaching/experiments/Z4,no,mono,no,18,no,black,no,no,None,null,768,psycho,psycho,0w7rs,1,osweb,1.3.3,None,space,y,1,,,y,,,enter,None,816,27014,3509,,,999,,,3438,816,2,psycho,1.61616E+12,Star.jpg,1024,2,48000,-16,experiment,138,6796,Experiment 1,4961,odd,9984,45,120294,,45,45,31,93712,,,97228,,122139,,6533,9982,120806,,121323,6533,New experiment,1,8,43212,51,yes,1024,6668
15,15,834,834,white,138,Default,no,psycho,psycho,psycho,0,138,1,4961,OSWeb experiment,uniform,0,0,0,0,44,,easy,0,0,0,4,0,44,,,44,,44,44,,0,4,0,4,44,,44,4,,Fri Mar 19 2021 14:05:43 GMT+0000 (Greenwich Mean Time),The main experiment item,yes,,/Users/hannahwindmill/Desktop/OneDrive/PhD/Teaching/experiments/Z4,no,mono,no,18,no,black,no,no,None,null,768,psycho,psycho,0w7rs,1,osweb,1.3.3,y,space,y,1,,,y,,,enter,None,180,27014,1779,,,180,,,3438,817,2,psycho,1.61616E+12,Triangle.jpg,1024,2,48000,-16,experiment,138,6796,Experiment 1,4961,odd,9984,45,122143,,45,45,31,123989,,,125772,,125955,,6533,9982,122656,,123172,6533,New experiment,1,8,44209,53,yes,1024,6668
15,15,834,834,white,138,Default,no,psycho,psycho,psycho,0,138,1,4961,OSWeb experiment,uniform,0,0,0,0,45,,easy,0,0,0,4,0,45,,,45,,45,45,,0,4,0,4,45,,45,4,,Fri Mar 19 2021 14:05:43 GMT+0000 (Greenwich Mean Time),The main experiment item,yes,,/Users/hannahwindmill/Desktop/OneDrive/PhD/Teaching/experiments/Z4,no,mono,no,18,no,black,no,no,None,null,768,psycho,psycho,0w7rs,1,osweb,1.3.3,None,space,y,1,,,y,,,enter,None,817,27014,1779,,,180,,,3438,817,2,psycho,1.61616E+12,Circle.jpg,1024,2,48000,-16,experiment,138,6796,Experiment 1,4961,odd,9984,45,125959,,45,45,31,123989,,,125772,,127805,,6533,9982,126472,,126988,6533,New experiment,1,8,45026,54,yes,1024,6668
15,15,833,833,white,138,Default,no,psycho,psycho,psycho,0,138,1,4961,OSWeb experiment,uniform,0,0,0,0,46,,easy,0,0,0,4,0,46,,,46,,46,46,,0,4,0,4,46,,46,4,,Fri Mar 19 2021 14:05:43 GMT+0000 (Greenwich Mean Time),The main experiment item,yes,,/Users/hannahwindmill/Desktop/OneDrive/PhD/Teaching/experiments/Z4,no,mono,no,18,no,black,no,no,None,null,768,psycho,psycho,0w7rs,1,osweb,1.3.3,None,space,y,1,,,y,,,enter,None,802,27014,1779,,,180,,,3438,802,2,psycho,1.61616E+12,Diamond.jpg,1024,2,48000,-16,experiment,138,6796,Experiment 1,4961,odd,9984,45,127809,,45,45,31,123989,,,125772,,129640,,6533,9982,128322,,128838,6533,New experiment,1,8,45828,55,yes,1024,6668
16,16,821,821,white,138,Default,no,psycho,psycho,psycho,0,138,1,4961,OSWeb experiment,uniform,1,0,0,0,47,,easy,0,0,0,4,0,47,,,47,,47,47,,0,4,0,4,47,,47,4,s,Fri Mar 19 2021 14:05:43 GMT+0000 (Greenwich Mean Time),The main experiment item,yes,,/Users/hannahwindmill/Desktop/OneDrive/PhD/Teaching/experiments/Z4,no,mono,no,18,no,black,no,no,None,null,768,psycho,psycho,0w7rs,1,osweb,1.3.3,s,space,y,1,,,y,,,enter,s,161,27014,1779,,,180,,,3438,161,2,psycho,1.61616E+12,Square.jpg,1024,2,48000,-16,experiment,138,6796,Experiment 1,4961,odd,9984,45,129645,,45,45,31,123989,,,125772,,130838,,6533,9982,130155,,130671,6533,New experiment,1,9,45989,56,yes,1024,6668
16,16,821,821,white,138,Default,no,psycho,psycho,psycho,0,138,1,4961,OSWeb experiment,uniform,0,0,0,0,48,,easy,0,0,0,4,0,48,,,48,,48,48,,0,4,0,4,48,,48,4,,Fri Mar 19 2021 14:05:43 GMT+0000 (Greenwich Mean Time),The main experiment item,yes,,/Users/hannahwindmill/Desktop/OneDrive/PhD/Teaching/experiments/Z4,no,mono,no,18,no,black,no,no,None,null,768,psycho,psycho,0w7rs,1,osweb,1.3.3,None,space,y,1,,,y,,,enter,None,816,27014,1779,,,180,,,3438,816,2,psycho,1.61616E+12,Star.jpg,1024,2,48000,-16,experiment,138,6796,Experiment 1,4961,odd,9984,45,130841,,45,45,31,123989,,,125772,,132687,,6533,9982,131354,,131871,6533,New experiment,1,9,46805,57,yes,1024,6668
16,16,821,821,white,138,Default,no,psycho,psycho,psycho,0,138,1,4961,OSWeb experiment,uniform,0,0,0,0,49,,easy,0,0,0,4,0,49,,,49,,49,49,,0,4,0,4,49,,49,4,,Fri Mar 19 2021 14:05:43 GMT+0000 (Greenwich Mean Time),The main experiment item,yes,,/Users/hannahwindmill/Desktop/OneDrive/PhD/Teaching/experiments/Z4,no,mono,no,18,no,black,no,no,None,null,768,psycho,psycho,0w7rs,1,osweb,1.3.3,None,space,y,1,,,y,,,enter,None,817,27014,1779,,,180,,,3438,817,2,psycho,1.61616E+12,Triangle.jpg,1024,2,48000,-16,experiment,138,6796,Experiment 1,4961,odd,9984,45,132694,,45,45,31,123989,,,125772,,134537,,6533,9982,133204,,133720,6533,New experiment,1,9,47622,58,yes,1024,6668
15,15,821,821,white,138,Default,no,psycho,psycho,psycho,0,138,1,4961,OSWeb experiment,uniform,0,0,0,0,50,,easy,0,0,0,4,0,50,,,50,,50,50,,0,4,0,4,50,,50,4,,Fri Mar 19 2021 14:05:43 GMT+0000 (Greenwich Mean Time),The main experiment item,yes,,/Users/hannahwindmill/Desktop/OneDrive/PhD/Teaching/experiments/Z4,no,mono,no,18,no,black,no,no,None,null,768,psycho,psycho,0w7rs,1,osweb,1.3.3,None,space,y,1,,,y,,,enter,None,816,27014,1779,,,180,,,3438,816,2,psycho,1.61616E+12,Circle.jpg,1024,2,48000,-16,experiment,138,6796,Experiment 1,4961,odd,9984,45,134546,,45,45,31,123989,,,125772,,136387,,6533,9982,135054,,135570,6533,New experiment,1,9,48438,59,yes,1024,6668
15,15,821,821,white,138,Default,no,psycho,psycho,psycho,0,138,1,4961,OSWeb experiment,uniform,0,0,0,0,51,,easy,0,0,0,4,0,51,,,51,,51,51,,0,4,0,4,51,,51,4,,Fri Mar 19 2021 14:05:43 GMT+0000 (Greenwich Mean Time),The main experiment item,yes,,/Users/hannahwindmill/Desktop/OneDrive/PhD/Teaching/experiments/Z4,no,mono,no,18,no,black,no,no,None,null,768,psycho,psycho,0w7rs,1,osweb,1.3.3,None,space,y,1,,,y,,,enter,None,816,27014,1779,,,180,,,3438,816,2,psycho,1.61616E+12,Diamond.jpg,1024,2,48000,-16,experiment,138,6796,Experiment 1,4961,odd,9984,45,136391,,45,45,31,123989,,,125772,,138236,,6533,9982,136903,,137420,6533,New experiment,1,9,49254,60,yes,1024,6668
16,16,808,808,white,138,Default,no,psycho,psycho,psycho,0,138,1,4961,OSWeb experiment,uniform,1,0,0,0,52,,easy,0,0,0,4,0,52,,,52,,52,52,,0,4,0,4,52,,52,4,s,Fri Mar 19 2021 14:05:43 GMT+0000 (Greenwich Mean Time),The main experiment item,yes,,/Users/hannahwindmill/Desktop/OneDrive/PhD/Teaching/experiments/Z4,no,mono,no,18,no,black,no,no,None,null,768,psycho,psycho,0w7rs,1,osweb,1.3.3,s,space,y,1,,,y,,,enter,s,34,27014,1779,,,180,,,3438,34,2,psycho,1.61616E+12,Square.jpg,1024,2,48000,-16,experiment,138,6796,Experiment 1,4961,odd,9984,45,138240,,45,45,31,123989,,,125772,,139319,,6533,9982,138753,,139269,6533,New experiment,1,10,49288,61,yes,1024,6668
16,16,808,808,white,138,Default,no,psycho,psycho,psycho,0,138,1,4961,OSWeb experiment,uniform,0,0,0,0,53,,easy,0,0,0,4,0,53,,,53,,53,53,,0,4,0,4,53,,53,4,,Fri Mar 19 2021 14:05:43 GMT+0000 (Greenwich Mean Time),The main experiment item,yes,,/Users/hannahwindmill/Desktop/OneDrive/PhD/Teaching/experiments/Z4,no,mono,no,18,no,black,no,no,None,null,768,psycho,psycho,0w7rs,1,osweb,1.3.3,None,space,y,1,,,y,,,enter,None,818,27014,1779,,,180,,,3438,818,2,psycho,1.61616E+12,Star.jpg,1024,2,48000,-16,experiment,138,6796,Experiment 1,4961,odd,9984,45,139323,,45,45,31,123989,,,125772,,141170,,6533,9982,139836,,140352,6533,New experiment,1,10,50106,62,yes,1024,6668
16,16,808,808,white,138,Default,no,psycho,psycho,psycho,0,138,1,4961,OSWeb experiment,uniform,0,0,0,0,54,,easy,0,0,0,4,0,54,,,54,,54,54,,0,4,0,4,54,,54,4,,Fri Mar 19 2021 14:05:43 GMT+0000 (Greenwich Mean Time),The main experiment item,yes,,/Users/hannahwindmill/Desktop/OneDrive/PhD/Teaching/experiments/Z4,no,mono,no,18,no,black,no,no,None,null,768,psycho,psycho,0w7rs,1,osweb,1.3.3,None,space,y,1,,,y,,,enter,None,817,27014,1779,,,180,,,3438,817,2,psycho,1.61616E+12,Triangle.jpg,1024,2,48000,-16,experiment,138,6796,Experiment 1,4961,odd,9984,45,141174,,45,45,31,123989,,,125772,,143019,,6533,9982,141686,,142202,6533,New experiment,1,10,50923,63,yes,1024,6668
16,16,808,808,white,138,Default,no,psycho,psycho,psycho,0,138,1,4961,OSWeb experiment,uniform,0,0,0,0,55,,easy,0,0,0,4,0,55,,,55,,55,55,,0,4,0,4,55,,55,4,,Fri Mar 19 2021 14:05:43 GMT+0000 (Greenwich Mean Time),The main experiment item,yes,,/Users/hannahwindmill/Desktop/OneDrive/PhD/Teaching/experiments/Z4,no,mono,no,18,no,black,no,no,None,null,768,psycho,psycho,0w7rs,1,osweb,1.3.3,None,space,y,1,,,y,,,enter,None,816,27014,1779,,,180,,,3438,816,2,psycho,1.61616E+12,Circle.jpg,1024,2,48000,-16,experiment,138,6796,Experiment 1,4961,odd,9984,45,143024,,45,45,31,123989,,,125772,,144868,,6533,9982,143535,,144052,6533,New experiment,1,10,51739,64,yes,1024,6668
15,15,809,809,white,138,Default,no,psycho,psycho,psycho,0,138,1,4961,OSWeb experiment,uniform,0,0,0,0,56,,easy,0,0,0,4,0,56,,,56,,56,56,,0,4,0,4,56,,56,4,,Fri Mar 19 2021 14:05:43 GMT+0000 (Greenwich Mean Time),The main experiment item,yes,,/Users/hannahwindmill/Desktop/OneDrive/PhD/Teaching/experiments/Z4,no,mono,no,18,no,black,no,no,None,null,768,psycho,psycho,0w7rs,1,osweb,1.3.3,None,space,y,1,,,y,,,enter,None,818,27014,1779,,,180,,,3438,818,2,psycho,1.61616E+12,Diamond.jpg,1024,2,48000,-16,experiment,138,6796,Experiment 1,4961,odd,9984,45,144872,,45,45,31,123989,,,125772,,146719,,6533,9982,145385,,145901,6533,New experiment,1,10,52557,65,yes,1024,6668
17,17,797,797,white,138,Default,no,psycho,psycho,psycho,0,138,1,4961,OSWeb experiment,uniform,1,0,0,0,57,,easy,0,0,0,4,0,57,,,57,,57,57,,0,4,0,4,57,,57,4,s,Fri Mar 19 2021 14:05:43 GMT+0000 (Greenwich Mean Time),The main experiment item,yes,,/Users/hannahwindmill/Desktop/OneDrive/PhD/Teaching/experiments/Z4,no,mono,no,18,no,black,no,no,None,null,768,psycho,psycho,0w7rs,1,osweb,1.3.3,s,space,y,1,,,y,,,enter,s,61,27014,1779,,,180,,,3438,61,2,psycho,1.61616E+12,Square.jpg,1024,2,48000,-16,experiment,138,6796,Experiment 1,4961,odd,9984,45,146723,,45,45,31,123989,,,125772,,147818,,6533,9982,147235,,147751,6533,New experiment,1,11,52618,66,yes,1024,6668
16,16,798,798,white,138,Default,no,psycho,psycho,psycho,0,138,1,4961,OSWeb experiment,uniform,0,0,0,0,58,,easy,0,0,0,4,0,58,,,58,,58,58,,0,4,0,4,58,,58,4,,Fri Mar 19 2021 14:05:43 GMT+0000 (Greenwich Mean Time),The main experiment item,yes,,/Users/hannahwindmill/Desktop/OneDrive/PhD/Teaching/experiments/Z4,no,mono,no,18,no,black,no,no,None,null,768,psycho,psycho,0w7rs,1,osweb,1.3.3,None,space,y,1,,,y,,,enter,None,816,27014,1779,,,180,,,3438,816,2,psycho,1.61616E+12,Star.jpg,1024,2,48000,-16,experiment,138,6796,Experiment 1,4961,odd,9984,45,147822,,45,45,31,123989,,,125772,,149668,,6533,9982,148334,,148851,6533,New experiment,1,11,53434,67,yes,1024,6668
16,16,789,789,white,138,Default,no,psycho,psycho,psycho,0,138,1,4961,OSWeb experiment,uniform,0,0,0,0,59,,easy,0,0,0,4,0,59,,,59,,59,59,,0,4,0,4,59,,59,4,,Fri Mar 19 2021 14:05:43 GMT+0000 (Greenwich Mean Time),The main experiment item,yes,,/Users/hannahwindmill/Desktop/OneDrive/PhD/Teaching/experiments/Z4,no,mono,no,18,no,black,no,no,None,null,768,psycho,psycho,0w7rs,1,osweb,1.3.3,n,space,n,0,,,n,,,enter,None,176,27014,1652,,,176,,,3438,817,2,psycho,1.61616E+12,Triangle.jpg,1024,2,48000,-16,experiment,138,6796,Experiment 1,4961,odd,9984,45,149677,,45,45,31,151517,,,153183,,153367,,6533,9982,150184,,150700,6533,New experiment,1,11,54427,69,yes,1024,6668
16,16,789,789,white,138,Default,no,psycho,psycho,psycho,0,138,1,4961,OSWeb experiment,uniform,0,0,0,0,60,,easy,0,0,0,4,0,60,,,60,,60,60,,0,4,0,4,60,,60,4,,Fri Mar 19 2021 14:05:43 GMT+0000 (Greenwich Mean Time),The main experiment item,yes,,/Users/hannahwindmill/Desktop/OneDrive/PhD/Teaching/experiments/Z4,no,mono,no,18,no,black,no,no,None,null,768,psycho,psycho,0w7rs,1,osweb,1.3.3,None,space,n,0,,,n,,,enter,None,816,27014,1652,,,176,,,3438,816,2,psycho,1.61616E+12,Circle.jpg,1024,2,48000,-16,experiment,138,6796,Experiment 1,4961,odd,9984,45,153371,,45,45,31,151517,,,153183,,155216,,6533,9982,153883,,154400,6533,New experiment,1,11,55243,70,yes,1024,6668
15,15,790,790,white,138,Default,no,psycho,psycho,psycho,0,138,1,4961,OSWeb experiment,uniform,0,0,0,0,61,,easy,0,0,0,4,0,61,,,61,,61,61,,0,4,0,4,61,,61,4,,Fri Mar 19 2021 14:05:43 GMT+0000 (Greenwich Mean Time),The main experiment item,yes,,/Users/hannahwindmill/Desktop/OneDrive/PhD/Teaching/experiments/Z4,no,mono,no,18,no,black,no,no,None,null,768,psycho,psycho,0w7rs,1,osweb,1.3.3,None,space,n,0,,,n,,,enter,None,817,27014,1652,,,176,,,3438,817,2,psycho,1.61616E+12,Diamond.jpg,1024,2,48000,-16,experiment,138,6796,Experiment 1,4961,odd,9984,45,155221,,45,45,31,151517,,,153183,,157066,,6533,9982,155733,,156249,6533,New experiment,1,11,56060,71,yes,1024,6668
17,17,780,780,white,138,Default,no,psycho,psycho,psycho,0,138,1,4961,OSWeb experiment,uniform,1,0,0,0,62,,easy,0,0,0,4,0,62,,,62,,62,62,,0,4,0,4,62,,62,4,s,Fri Mar 19 2021 14:05:43 GMT+0000 (Greenwich Mean Time),The main experiment item,yes,,/Users/hannahwindmill/Desktop/OneDrive/PhD/Teaching/experiments/Z4,no,mono,no,18,no,black,no,no,None,null,768,psycho,psycho,0w7rs,1,osweb,1.3.3,s,space,n,0,,,n,,,enter,s,134,27014,1652,,,176,,,3438,134,2,psycho,1.61616E+12,Square.jpg,1024,2,48000,-16,experiment,138,6796,Experiment 1,4961,odd,9984,45,157070,,45,45,31,151517,,,153183,,158249,,6533,9982,157584,,158099,6533,New experiment,1,12,56194,72,yes,1024,6668
16,16,781,781,white,138,Default,no,psycho,psycho,psycho,0,138,1,4961,OSWeb experiment,uniform,0,0,0,0,63,,easy,0,0,0,4,0,63,,,63,,63,63,,0,4,0,4,63,,63,4,,Fri Mar 19 2021 14:05:43 GMT+0000 (Greenwich Mean Time),The main experiment item,yes,,/Users/hannahwindmill/Desktop/OneDrive/PhD/Teaching/experiments/Z4,no,mono,no,18,no,black,no,no,None,null,768,psycho,psycho,0w7rs,1,osweb,1.3.3,None,space,n,0,,,n,,,enter,None,817,27014,1652,,,176,,,3438,817,2,psycho,1.61616E+12,Star.jpg,1024,2,48000,-16,experiment,138,6796,Experiment 1,4961,odd,9984,45,158254,,45,45,31,151517,,,153183,,160099,,6533,9982,158767,,159282,6533,New experiment,1,12,57011,73,yes,1024,6668
16,16,781,781,white,138,Default,no,psycho,psycho,psycho,0,138,1,4961,OSWeb experiment,uniform,0,0,0,0,64,,easy,0,0,0,4,0,64,,,64,,64,64,,0,4,0,4,64,,64,4,,Fri Mar 19 2021 14:05:43 GMT+0000 (Greenwich Mean Time),The main experiment item,yes,,/Users/hannahwindmill/Desktop/OneDrive/PhD/Teaching/experiments/Z4,no,mono,no,18,no,black,no,no,None,null,768,psycho,psycho,0w7rs,1,osweb,1.3.3,None,space,n,0,,,n,,,enter,None,801,27014,1652,,,176,,,3438,801,2,psycho,1.61616E+12,Triangle.jpg,1024,2,48000,-16,experiment,138,6796,Experiment 1,4961,odd,9984,45,160103,,45,45,31,151517,,,153183,,161933,,6533,9982,160615,,161132,6533,New experiment,1,12,57812,74,yes,1024,6668
16,16,782,782,white,138,Default,no,psycho,psycho,psycho,0,138,1,4961,OSWeb experiment,uniform,0,0,0,0,65,,easy,0,0,0,4,0,65,,,65,,65,65,,0,4,0,4,65,,65,4,,Fri Mar 19 2021 14:05:43 GMT+0000 (Greenwich Mean Time),The main experiment item,yes,,/Users/hannahwindmill/Desktop/OneDrive/PhD/Teaching/experiments/Z4,no,mono,no,18,no,black,no,no,None,null,768,psycho,psycho,0w7rs,1,osweb,1.3.3,None,space,n,0,,,n,,,enter,None,816,27014,1652,,,176,,,3438,816,2,psycho,1.61616E+12,Circle.jpg,1024,2,48000,-16,experiment,138,6796,Experiment 1,4961,odd,9984,45,161938,,45,45,31,151517,,,153183,,163781,,6533,9982,162448,,162965,6533,New experiment,1,12,58628,75,yes,1024,6668
16,16,782,782,white,138,Default,no,psycho,psycho,psycho,0,138,1,4961,OSWeb experiment,uniform,0,0,0,0,66,,easy,0,0,0,4,0,66,,,66,,66,66,,0,4,0,4,66,,66,4,,Fri Mar 19 2021 14:05:43 GMT+0000 (Greenwich Mean Time),The main experiment item,yes,,/Users/hannahwindmill/Desktop/OneDrive/PhD/Teaching/experiments/Z4,no,mono,no,18,no,black,no,no,None,null,768,psycho,psycho,0w7rs,1,osweb,1.3.3,None,space,n,0,,,n,,,enter,None,817,27014,1652,,,176,,,3438,817,2,psycho,1.61616E+12,Diamond.jpg,1024,2,48000,-16,experiment,138,6796,Experiment 1,4961,odd,9984,45,163786,,45,45,31,151517,,,153183,,165631,,6533,9982,164298,,164814,6533,New experiment,1,12,59445,76,yes,1024,6668
17,17,772,772,white,138,Default,no,psycho,psycho,psycho,0,138,1,4961,OSWeb experiment,uniform,1,0,0,0,67,,easy,0,0,0,4,0,67,,,67,,67,67,,0,4,0,4,67,,67,4,s,Fri Mar 19 2021 14:05:43 GMT+0000 (Greenwich Mean Time),The main experiment item,yes,,/Users/hannahwindmill/Desktop/OneDrive/PhD/Teaching/experiments/Z4,no,mono,no,18,no,black,no,no,None,null,768,psycho,psycho,0w7rs,1,osweb,1.3.3,s,space,n,0,,,n,,,enter,s,37,27014,1652,,,176,,,3438,37,2,psycho,1.61616E+12,Square.jpg,1024,2,48000,-16,experiment,138,6796,Experiment 1,4961,odd,9984,45,165639,,45,45,31,151517,,,153183,,166714,,6533,9982,166148,,166664,6533,New experiment,1,13,59482,77,yes,1024,6668
17,17,773,773,white,138,Default,no,psycho,psycho,psycho,0,138,1,4961,OSWeb experiment,uniform,0,0,0,0,68,,easy,0,0,0,4,0,68,,,68,,68,68,,0,4,0,4,68,,68,4,,Fri Mar 19 2021 14:05:43 GMT+0000 (Greenwich Mean Time),The main experiment item,yes,,/Users/hannahwindmill/Desktop/OneDrive/PhD/Teaching/experiments/Z4,no,mono,no,18,no,black,no,no,None,null,768,psycho,psycho,0w7rs,1,osweb,1.3.3,None,space,n,0,,,n,,,enter,None,817,27014,1652,,,176,,,3438,817,2,psycho,1.61616E+12,Star.jpg,1024,2,48000,-16,experiment,138,6796,Experiment 1,4961,odd,9984,45,166718,,45,45,31,151517,,,153183,,168564,,6533,9982,167231,,167747,6533,New experiment,1,13,60299,78,yes,1024,6668
16,16,774,774,white,138,Default,no,psycho,psycho,psycho,0,138,1,4961,OSWeb experiment,uniform,0,0,0,0,69,,easy,0,0,0,4,0,69,,,69,,69,69,,0,4,0,4,69,,69,4,,Fri Mar 19 2021 14:05:43 GMT+0000 (Greenwich Mean Time),The main experiment item,yes,,/Users/hannahwindmill/Desktop/OneDrive/PhD/Teaching/experiments/Z4,no,mono,no,18,no,black,no,no,None,null,768,psycho,psycho,0w7rs,1,osweb,1.3.3,None,space,n,0,,,n,,,enter,None,816,27014,1652,,,176,,,3438,816,2,psycho,1.61616E+12,Triangle.jpg,1024,2,48000,-16,experiment,138,6796,Experiment 1,4961,odd,9984,45,168568,,45,45,31,151517,,,153183,,170414,,6533,9982,169080,,169597,6533,New experiment,1,13,61115,79,yes,1024,6668
16,16,774,774,white,138,Default,no,psycho,psycho,psycho,0,138,1,4961,OSWeb experiment,uniform,0,0,0,0,70,,easy,0,0,0,4,0,70,,,70,,70,70,,0,4,0,4,70,,70,4,,Fri Mar 19 2021 14:05:43 GMT+0000 (Greenwich Mean Time),The main experiment item,yes,,/Users/hannahwindmill/Desktop/OneDrive/PhD/Teaching/experiments/Z4,no,mono,no,18,no,black,no,no,None,null,768,psycho,psycho,0w7rs,1,osweb,1.3.3,None,space,n,0,,,n,,,enter,None,819,27014,1652,,,176,,,3438,819,2,psycho,1.61616E+12,Circle.jpg,1024,2,48000,-16,experiment,138,6796,Experiment 1,4961,odd,9984,45,170423,,45,45,31,151517,,,153183,,172266,,6533,9982,170930,,171447,6533,New experiment,1,13,61934,80,yes,1024,6668
16,16,775,775,white,138,Default,no,psycho,psycho,psycho,0,138,1,4961,OSWeb experiment,uniform,0,0,0,0,71,,easy,0,0,0,4,0,71,,,71,,71,71,,0,4,0,4,71,,71,4,,Fri Mar 19 2021 14:05:43 GMT+0000 (Greenwich Mean Time),The main experiment item,yes,,/Users/hannahwindmill/Desktop/OneDrive/PhD/Teaching/experiments/Z4,no,mono,no,18,no,black,no,no,None,null,768,psycho,psycho,0w7rs,1,osweb,1.3.3,None,space,n,0,,,n,,,enter,None,817,27014,1652,,,176,,,3438,817,2,psycho,1.61616E+12,Diamond.jpg,1024,2,48000,-16,experiment,138,6796,Experiment 1,4961,odd,9984,45,172270,,45,45,31,151517,,,153183,,174113,,6533,9982,172780,,173296,6533,New experiment,1,13,62751,81,yes,1024,6668
17,17,766,766,white,138,Default,no,psycho,psycho,psycho,0,138,1,4961,OSWeb experiment,uniform,1,0,0,0,72,,easy,0,0,0,4,0,72,,,72,,72,72,,0,4,0,4,72,,72,4,s,Fri Mar 19 2021 14:05:43 GMT+0000 (Greenwich Mean Time),The main experiment item,yes,,/Users/hannahwindmill/Desktop/OneDrive/PhD/Teaching/experiments/Z4,no,mono,no,18,no,black,no,no,None,null,768,psycho,psycho,0w7rs,1,osweb,1.3.3,s,space,n,0,,,n,,,enter,s,62,27014,1652,,,176,,,3438,62,2,psycho,1.61616E+12,Square.jpg,1024,2,48000,-16,experiment,138,6796,Experiment 1,4961,odd,9984,45,174117,,45,45,31,151517,,,153183,,175213,,6533,9982,174629,,175146,6533,New experiment,1,14,62813,82,yes,1024,6668
17,17,767,767,white,138,Default,no,psycho,psycho,psycho,0,138,1,4961,OSWeb experiment,uniform,0,0,0,0,73,,easy,0,0,0,4,0,73,,,73,,73,73,,0,4,0,4,73,,73,4,,Fri Mar 19 2021 14:05:43 GMT+0000 (Greenwich Mean Time),The main experiment item,yes,,/Users/hannahwindmill/Desktop/OneDrive/PhD/Teaching/experiments/Z4,no,mono,no,18,no,black,no,no,None,null,768,psycho,psycho,0w7rs,1,osweb,1.3.3,None,space,n,0,,,n,,,enter,None,816,27014,1652,,,176,,,3438,816,2,psycho,1.61616E+12,Star.jpg,1024,2,48000,-16,experiment,138,6796,Experiment 1,4961,odd,9984,45,175216,,45,45,31,151517,,,153183,,177062,,6533,9982,175729,,176246,6533,New experiment,1,14,63629,83,yes,1024,6668
16,16,760,760,white,138,Default,no,psycho,psycho,psycho,0,138,1,4961,OSWeb experiment,uniform,0,0,0,0,74,,easy,0,0,0,4,0,74,,,74,,74,74,,0,4,0,4,74,,74,4,,Fri Mar 19 2021 14:05:43 GMT+0000 (Greenwich Mean Time),The main experiment item,yes,,/Users/hannahwindmill/Desktop/OneDrive/PhD/Teaching/experiments/Z4,no,mono,no,18,no,black,no,no,None,null,768,psycho,psycho,0w7rs,1,osweb,1.3.3,n,space,n,0,,,n,,,enter,None,165,27014,1490,,,165,,,3438,817,2,psycho,1.61616E+12,Triangle.jpg,1024,2,48000,-16,experiment,138,6796,Experiment 1,4961,odd,9984,45,177066,,45,45,31,178912,,,180412,,180578,,6533,9982,177579,,178095,6533,New experiment,1,14,64611,85,yes,1024,6668
16,16,761,761,white,138,Default,no,psycho,psycho,psycho,0,138,1,4961,OSWeb experiment,uniform,0,0,0,0,75,,easy,0,0,0,4,0,75,,,75,,75,75,,0,4,0,4,75,,75,4,,Fri Mar 19 2021 14:05:43 GMT+0000 (Greenwich Mean Time),The main experiment item,yes,,/Users/hannahwindmill/Desktop/OneDrive/PhD/Teaching/experiments/Z4,no,mono,no,18,no,black,no,no,None,null,768,psycho,psycho,0w7rs,1,osweb,1.3.3,None,space,n,0,,,n,,,enter,None,817,27014,1490,,,165,,,3438,817,2,psycho,1.61616E+12,Circle.jpg,1024,2,48000,-16,experiment,138,6796,Experiment 1,4961,odd,9984,45,180582,,45,45,31,178912,,,180412,,182429,,6533,9982,181095,,181611,6533,New experiment,1,14,65428,86,yes,1024,6668
16,16,761,761,white,138,Default,no,psycho,psycho,psycho,0,138,1,4961,OSWeb experiment,uniform,0,0,0,0,76,,easy,0,0,0,4,0,76,,,76,,76,76,,0,4,0,4,76,,76,4,,Fri Mar 19 2021 14:05:43 GMT+0000 (Greenwich Mean Time),The main experiment item,yes,,/Users/hannahwindmill/Desktop/OneDrive/PhD/Teaching/experiments/Z4,no,mono,no,18,no,black,no,no,None,null,768,psycho,psycho,0w7rs,1,osweb,1.3.3,None,space,n,0,,,n,,,enter,None,816,27014,1490,,,165,,,3438,816,2,psycho,1.61616E+12,Diamond.jpg,1024,2,48000,-16,experiment,138,6796,Experiment 1,4961,odd,9984,45,182432,,45,45,31,178912,,,180412,,184278,,6533,9982,182945,,183461,6533,New experiment,1,14,66244,87,yes,1024,6668
17,17,754,754,white,138,Default,no,psycho,psycho,psycho,0,138,1,4961,OSWeb experiment,uniform,1,0,0,0,77,,easy,0,0,0,4,0,77,,,77,,77,77,,0,4,0,4,77,,77,4,s,Fri Mar 19 2021 14:05:43 GMT+0000 (Greenwich Mean Time),The main experiment item,yes,,/Users/hannahwindmill/Desktop/OneDrive/PhD/Teaching/experiments/Z4,no,mono,no,18,no,black,no,no,None,null,768,psycho,psycho,0w7rs,1,osweb,1.3.3,s,space,n,0,,,n,,,enter,s,99,27014,1490,,,165,,,3438,99,2,psycho,1.61616E+12,Square.jpg,1024,2,48000,-16,experiment,138,6796,Experiment 1,4961,odd,9984,45,184281,,45,45,31,178912,,,180412,,185427,,6533,9982,184794,,185311,6533,New experiment,1,15,66343,88,yes,1024,6668
17,17,755,755,white,138,Default,no,psycho,psycho,psycho,0,138,1,4961,OSWeb experiment,uniform,0,0,0,0,78,,easy,0,0,0,4,0,78,,,78,,78,78,,0,4,0,4,78,,78,4,,Fri Mar 19 2021 14:05:43 GMT+0000 (Greenwich Mean Time),The main experiment item,yes,,/Users/hannahwindmill/Desktop/OneDrive/PhD/Teaching/experiments/Z4,no,mono,no,18,no,black,no,no,None,null,768,psycho,psycho,0w7rs,1,osweb,1.3.3,None,space,n,0,,,n,,,enter,None,817,27014,1490,,,165,,,3438,817,2,psycho,1.61616E+12,Star.jpg,1024,2,48000,-16,experiment,138,6796,Experiment 1,4961,odd,9984,45,185431,,45,45,31,178912,,,180412,,187277,,6533,9982,185944,,186460,6533,New experiment,1,15,67160,89,yes,1024,6668
17,17,755,755,white,138,Default,no,psycho,psycho,psycho,0,138,1,4961,OSWeb experiment,uniform,0,0,0,0,79,,easy,0,0,0,4,0,79,,,79,,79,79,,0,4,0,4,79,,79,4,,Fri Mar 19 2021 14:05:43 GMT+0000 (Greenwich Mean Time),The main experiment item,yes,,/Users/hannahwindmill/Desktop/OneDrive/PhD/Teaching/experiments/Z4,no,mono,no,18,no,black,no,no,None,null,768,psycho,psycho,0w7rs,1,osweb,1.3.3,None,space,n,0,,,n,,,enter,None,816,27014,1490,,,165,,,3438,816,2,psycho,1.61616E+12,Triangle.jpg,1024,2,48000,-16,experiment,138,6796,Experiment 1,4961,odd,9984,45,187280,,45,45,31,178912,,,180412,,189127,,6533,9982,187794,,188310,6533,New experiment,1,15,67976,90,yes,1024,6668
16,16,756,756,white,138,Default,no,psycho,psycho,psycho,0,138,1,4961,OSWeb experiment,uniform,0,0,0,0,80,,easy,0,0,0,4,0,80,,,80,,80,80,,0,4,0,4,80,,80,4,,Fri Mar 19 2021 14:05:43 GMT+0000 (Greenwich Mean Time),The main experiment item,yes,,/Users/hannahwindmill/Desktop/OneDrive/PhD/Teaching/experiments/Z4,no,mono,no,18,no,black,no,no,None,null,768,psycho,psycho,0w7rs,1,osweb,1.3.3,None,space,n,0,,,n,,,enter,None,816,27014,1490,,,165,,,3438,816,2,psycho,1.61616E+12,Circle.jpg,1024,2,48000,-16,experiment,138,6796,Experiment 1,4961,odd,9984,45,189131,,45,45,31,178912,,,180412,,190976,,6533,9982,189644,,190160,6533,New experiment,1,15,68792,91,yes,1024,6668
16,16,757,757,white,138,Default,no,psycho,psycho,psycho,0,138,1,4961,OSWeb experiment,uniform,0,0,0,0,81,,easy,0,0,0,4,0,81,,,81,,81,81,,0,4,0,4,81,,81,4,,Fri Mar 19 2021 14:05:43 GMT+0000 (Greenwich Mean Time),The main experiment item,yes,,/Users/hannahwindmill/Desktop/OneDrive/PhD/Teaching/experiments/Z4,no,mono,no,18,no,black,no,no,None,null,768,psycho,psycho,0w7rs,1,osweb,1.3.3,None,space,n,0,,,n,,,enter,None,815,27014,1490,,,165,,,3438,815,2,psycho,1.61616E+12,Diamond.jpg,1024,2,48000,-16,experiment,138,6796,Experiment 1,4961,odd,9984,45,190986,,45,45,31,178912,,,180412,,192809,,6533,9982,191493,,191994,6533,New experiment,1,15,69607,92,yes,1024,6668
17,17,749,749,white,138,Default,no,psycho,psycho,psycho,0,138,1,4961,OSWeb experiment,uniform,1,0,0,0,82,,easy,0,0,0,4,0,82,,,82,,82,82,,0,4,0,4,82,,82,4,s,Fri Mar 19 2021 14:05:43 GMT+0000 (Greenwich Mean Time),The main experiment item,yes,,/Users/hannahwindmill/Desktop/OneDrive/PhD/Teaching/experiments/Z4,no,mono,no,18,no,black,no,no,None,null,768,psycho,psycho,0w7rs,1,osweb,1.3.3,s,space,n,0,,,n,,,enter,s,81,27014,1490,,,165,,,3438,81,2,psycho,1.61616E+12,Square.jpg,1024,2,48000,-16,experiment,138,6796,Experiment 1,4961,odd,9984,45,192813,,45,45,31,178912,,,180412,,193926,,6533,9982,193326,,193842,6533,New experiment,1,16,69688,93,yes,1024,6668
17,17,750,750,white,138,Default,no,psycho,psycho,psycho,0,138,1,4961,OSWeb experiment,uniform,0,0,0,0,83,,easy,0,0,0,4,0,83,,,83,,83,83,,0,4,0,4,83,,83,4,,Fri Mar 19 2021 14:05:43 GMT+0000 (Greenwich Mean Time),The main experiment item,yes,,/Users/hannahwindmill/Desktop/OneDrive/PhD/Teaching/experiments/Z4,no,mono,no,18,no,black,no,no,None,null,768,psycho,psycho,0w7rs,1,osweb,1.3.3,None,space,n,0,,,n,,,enter,None,816,27014,1490,,,165,,,3438,816,2,psycho,1.61616E+12,Star.jpg,1024,2,48000,-16,experiment,138,6796,Experiment 1,4961,odd,9984,45,193929,,45,45,31,178912,,,180412,,195775,,6533,9982,194442,,194959,6533,New experiment,1,16,70504,94,yes,1024,6668
17,17,751,751,white,138,Default,no,psycho,psycho,psycho,0,138,1,4961,OSWeb experiment,uniform,0,0,0,0,84,,easy,0,0,0,4,0,84,,,84,,84,84,,0,4,0,4,84,,84,4,,Fri Mar 19 2021 14:05:43 GMT+0000 (Greenwich Mean Time),The main experiment item,yes,,/Users/hannahwindmill/Desktop/OneDrive/PhD/Teaching/experiments/Z4,no,mono,no,18,no,black,no,no,None,null,768,psycho,psycho,0w7rs,1,osweb,1.3.3,None,space,n,0,,,n,,,enter,None,817,27014,1490,,,165,,,3438,817,2,psycho,1.61616E+12,Triangle.jpg,1024,2,48000,-16,experiment,138,6796,Experiment 1,4961,odd,9984,45,195778,,45,45,31,178912,,,180412,,197625,,6533,9982,196292,,196808,6533,New experiment,1,16,71321,95,yes,1024,6668
17,17,751,751,white,138,Default,no,psycho,psycho,psycho,0,138,1,4961,OSWeb experiment,uniform,0,0,0,0,85,,easy,0,0,0,4,0,85,,,85,,85,85,,0,4,0,4,85,,85,4,,Fri Mar 19 2021 14:05:43 GMT+0000 (Greenwich Mean Time),The main experiment item,yes,,/Users/hannahwindmill/Desktop/OneDrive/PhD/Teaching/experiments/Z4,no,mono,no,18,no,black,no,no,None,null,768,psycho,psycho,0w7rs,1,osweb,1.3.3,None,space,n,0,,,n,,,enter,None,817,27014,1490,,,165,,,3438,817,2,psycho,1.61616E+12,Circle.jpg,1024,2,48000,-16,experiment,138,6796,Experiment 1,4961,odd,9984,45,197629,,45,45,31,178912,,,180412,,199475,,6533,9982,198142,,198658,6533,New experiment,1,16,72138,96,yes,1024,6668
16,16,752,752,white,138,Default,no,psycho,psycho,psycho,0,138,1,4961,OSWeb experiment,uniform,0,0,0,0,86,,easy,0,0,0,4,0,86,,,86,,86,86,,0,4,0,4,86,,86,4,,Fri Mar 19 2021 14:05:43 GMT+0000 (Greenwich Mean Time),The main experiment item,yes,,/Users/hannahwindmill/Desktop/OneDrive/PhD/Teaching/experiments/Z4,no,mono,no,18,no,black,no,no,None,null,768,psycho,psycho,0w7rs,1,osweb,1.3.3,None,space,n,0,,,n,,,enter,None,817,27014,1490,,,165,,,3438,817,2,psycho,1.61616E+12,Diamond.jpg,1024,2,48000,-16,experiment,138,6796,Experiment 1,4961,odd,9984,45,199479,,45,45,31,178912,,,180412,,201325,,6533,9982,199991,,200508,6533,New experiment,1,16,72955,97,yes,1024,6668
17,17,745,745,white,138,Default,no,psycho,psycho,psycho,0,138,1,4961,OSWeb experiment,uniform,1,0,0,0,87,,easy,0,0,0,4,0,87,,,87,,87,87,,0,4,0,4,87,,87,4,s,Fri Mar 19 2021 14:05:43 GMT+0000 (Greenwich Mean Time),The main experiment item,yes,,/Users/hannahwindmill/Desktop/OneDrive/PhD/Teaching/experiments/Z4,no,mono,no,18,no,black,no,no,None,null,768,psycho,psycho,0w7rs,1,osweb,1.3.3,s,space,n,0,,,n,,,enter,s,58,27014,1490,,,165,,,3438,58,2,psycho,1.61616E+12,Square.jpg,1024,2,48000,-16,experiment,138,6796,Experiment 1,4961,odd,9984,45,201329,,45,45,31,178912,,,180412,,202424,,6533,9982,201841,,202358,6533,New experiment,1,17,73013,98,yes,1024,6668
17,17,746,746,white,138,Default,no,psycho,psycho,psycho,0,138,1,4961,OSWeb experiment,uniform,0,0,0,0,88,,easy,0,0,0,4,0,88,,,88,,88,88,,0,4,0,4,88,,88,4,,Fri Mar 19 2021 14:05:43 GMT+0000 (Greenwich Mean Time),The main experiment item,yes,,/Users/hannahwindmill/Desktop/OneDrive/PhD/Teaching/experiments/Z4,no,mono,no,18,no,black,no,no,None,null,768,psycho,psycho,0w7rs,1,osweb,1.3.3,None,space,n,0,,,n,,,enter,None,817,27014,1490,,,165,,,3438,817,2,psycho,1.61616E+12,Star.jpg,1024,2,48000,-16,experiment,138,6796,Experiment 1,4961,odd,9984,45,202428,,45,45,31,178912,,,180412,,204274,,6533,9982,202941,,203457,6533,New experiment,1,17,73830,99,yes,1024,6668
17,17,741,741,white,138,Default,no,psycho,psycho,psycho,0,138,1,4961,OSWeb experiment,uniform,0,0,0,0,89,,easy,0,0,0,4,0,89,,,89,,89,89,,0,4,0,4,89,,89,4,,Fri Mar 19 2021 14:05:43 GMT+0000 (Greenwich Mean Time),The main experiment item,yes,,/Users/hannahwindmill/Desktop/OneDrive/PhD/Teaching/experiments/Z4,no,mono,no,18,no,black,no,no,None,null,768,psycho,psycho,0w7rs,1,osweb,1.3.3,y,space,y,1,,,y,,,enter,None,169,27014,1316,,,169,,,3438,816,2,psycho,1.61616E+12,Triangle.jpg,1024,2,48000,-16,experiment,138,6796,Experiment 1,4961,odd,9984,45,204278,,45,45,31,206124,,,207456,,207640,,6533,9982,204790,,205307,6533,New experiment,1,17,74815,101,yes,1024,6668
17,17,741,741,white,138,Default,no,psycho,psycho,psycho,0,138,1,4961,OSWeb experiment,uniform,0,0,0,0,90,,easy,0,0,0,4,0,90,,,90,,90,90,,0,4,0,4,90,,90,4,,Fri Mar 19 2021 14:05:43 GMT+0000 (Greenwich Mean Time),The main experiment item,yes,,/Users/hannahwindmill/Desktop/OneDrive/PhD/Teaching/experiments/Z4,no,mono,no,18,no,black,no,no,None,null,768,psycho,psycho,0w7rs,1,osweb,1.3.3,None,space,y,1,,,y,,,enter,None,816,27014,1316,,,169,,,3438,816,2,psycho,1.61616E+12,Circle.jpg,1024,2,48000,-16,experiment,138,6796,Experiment 1,4961,odd,9984,45,207650,,45,45,31,206124,,,207456,,209489,,6533,9982,208156,,208673,6533,New experiment,1,17,75631,102,yes,1024,6668
17,17,742,742,white,138,Default,no,psycho,psycho,psycho,0,138,1,4961,OSWeb experiment,uniform,0,0,0,0,91,,easy,0,0,0,4,0,91,,,91,,91,91,,0,4,0,4,91,,91,4,,Fri Mar 19 2021 14:05:43 GMT+0000 (Greenwich Mean Time),The main experiment item,yes,,/Users/hannahwindmill/Desktop/OneDrive/PhD/Teaching/experiments/Z4,no,mono,no,18,no,black,no,no,None,null,768,psycho,psycho,0w7rs,1,osweb,1.3.3,None,space,y,1,,,y,,,enter,None,817,27014,1316,,,169,,,3438,817,2,psycho,1.61616E+12,Diamond.jpg,1024,2,48000,-16,experiment,138,6796,Experiment 1,4961,odd,9984,45,209493,,45,45,31,206124,,,207456,,211339,,6533,9982,210006,,210522,6533,New experiment,1,17,76448,103,yes,1024,6668
17,17,737,737,white,138,Default,no,psycho,psycho,psycho,0,138,1,4961,OSWeb experiment,uniform,1,0,0,0,92,,easy,0,0,0,4,0,92,,,92,,92,92,,0,4,0,4,92,,92,4,s,Fri Mar 19 2021 14:05:43 GMT+0000 (Greenwich Mean Time),The main experiment item,yes,,/Users/hannahwindmill/Desktop/OneDrive/PhD/Teaching/experiments/Z4,no,mono,no,18,no,black,no,no,None,null,768,psycho,psycho,0w7rs,1,osweb,1.3.3,s,space,y,1,,,y,,,enter,s,226,27014,1316,,,169,,,3438,226,2,psycho,1.61616E+12,Square.jpg,1024,2,48000,-16,experiment,138,6796,Experiment 1,4961,odd,9984,45,211343,,45,45,31,206124,,,207456,,212605,,6533,9982,211856,,212372,6533,New experiment,1,18,76674,104,yes,1024,6668
17,17,738,738,white,138,Default,no,psycho,psycho,psycho,0,138,1,4961,OSWeb experiment,uniform,0,0,0,0,93,,easy,0,0,0,4,0,93,,,93,,93,93,,0,4,0,4,93,,93,4,,Fri Mar 19 2021 14:05:43 GMT+0000 (Greenwich Mean Time),The main experiment item,yes,,/Users/hannahwindmill/Desktop/OneDrive/PhD/Teaching/experiments/Z4,no,mono,no,18,no,black,no,no,None,null,768,psycho,psycho,0w7rs,1,osweb,1.3.3,None,space,y,1,,,y,,,enter,None,817,27014,1316,,,169,,,3438,817,2,psycho,1.61616E+12,Star.jpg,1024,2,48000,-16,experiment,138,6796,Experiment 1,4961,odd,9984,45,212609,,45,45,31,206124,,,207456,,214455,,6533,9982,213122,,213638,6533,New experiment,1,18,77491,105,yes,1024,6668
17,17,739,739,white,138,Default,no,psycho,psycho,psycho,0,138,1,4961,OSWeb experiment,uniform,0,0,0,0,94,,easy,0,0,0,4,0,94,,,94,,94,94,,0,4,0,4,94,,94,4,,Fri Mar 19 2021 14:05:43 GMT+0000 (Greenwich Mean Time),The main experiment item,yes,,/Users/hannahwindmill/Desktop/OneDrive/PhD/Teaching/experiments/Z4,no,mono,no,18,no,black,no,no,None,null,768,psycho,psycho,0w7rs,1,osweb,1.3.3,None,space,y,1,,,y,,,enter,None,817,27014,1316,,,169,,,3438,817,2,psycho,1.61616E+12,Triangle.jpg,1024,2,48000,-16,experiment,138,6796,Experiment 1,4961,odd,9984,45,214459,,45,45,31,206124,,,207456,,216305,,6533,9982,214972,,215488,6533,New experiment,1,18,78308,106,yes,1024,6668
17,17,739,739,white,138,Default,no,psycho,psycho,psycho,0,138,1,4961,OSWeb experiment,uniform,0,0,0,0,95,,easy,0,0,0,4,0,95,,,95,,95,95,,0,4,0,4,95,,95,4,,Fri Mar 19 2021 14:05:43 GMT+0000 (Greenwich Mean Time),The main experiment item,yes,,/Users/hannahwindmill/Desktop/OneDrive/PhD/Teaching/experiments/Z4,no,mono,no,18,no,black,no,no,None,null,768,psycho,psycho,0w7rs,1,osweb,1.3.3,None,space,y,1,,,y,,,enter,None,816,27014,1316,,,169,,,3438,816,2,psycho,1.61616E+12,Circle.jpg,1024,2,48000,-16,experiment,138,6796,Experiment 1,4961,odd,9984,45,216308,,45,45,31,206124,,,207456,,218154,,6533,9982,216821,,217338,6533,New experiment,1,18,79124,107,yes,1024,6668
17,17,740,740,white,138,Default,no,psycho,psycho,psycho,0,138,1,4961,OSWeb experiment,uniform,0,0,0,0,96,,easy,0,0,0,4,0,96,,,96,,96,96,,0,4,0,4,96,,96,4,,Fri Mar 19 2021 14:05:43 GMT+0000 (Greenwich Mean Time),The main experiment item,yes,,/Users/hannahwindmill/Desktop/OneDrive/PhD/Teaching/experiments/Z4,no,mono,no,18,no,black,no,no,None,null,768,psycho,psycho,0w7rs,1,osweb,1.3.3,None,space,y,1,,,y,,,enter,None,817,27014,1316,,,169,,,3438,817,2,psycho,1.61616E+12,Diamond.jpg,1024,2,48000,-16,experiment,138,6796,Experiment 1,4961,odd,9984,45,218159,,45,45,31,206124,,,207456,,220004,,6533,9982,218671,,219187,6533,New experiment,1,18,79941,108,yes,1024,6668
17,17,735,735,white,138,Default,no,psycho,psycho,psycho,0,138,1,4961,OSWeb experiment,uniform,0,0,0,0,97,,easy,0,0,0,4,0,97,,,97,,97,97,,0,4,0,4,97,,97,4,,Fri Mar 19 2021 14:05:43 GMT+0000 (Greenwich Mean Time),The main experiment item,yes,,/Users/hannahwindmill/Desktop/OneDrive/PhD/Teaching/experiments/Z4,no,mono,no,18,no,black,no,no,None,null,768,psycho,psycho,0w7rs,1,osweb,1.3.3,s,space,y,1,,,y,,,enter,s,170,27014,1316,,,169,,,3438,170,2,psycho,1.61616E+12,Square.jpg,1024,2,48000,-16,experiment,138,6796,Experiment 1,4961,odd,9984,45,220008,,45,45,31,206124,,,207456,,221220,,6533,9982,220521,,221037,6533,New experiment,1,18,80111,109,yes,1024,6668
16,16,736,736,white,138,Default,no,psycho,psycho,psycho,0,138,1,4961,OSWeb experiment,uniform,0,0,0,0,98,,easy,0,0,0,4,0,98,,,98,,98,98,,0,4,0,4,98,,98,4,,Fri Mar 19 2021 14:05:43 GMT+0000 (Greenwich Mean Time),The main experiment item,yes,,/Users/hannahwindmill/Desktop/OneDrive/PhD/Teaching/experiments/Z4,no,mono,no,18,no,black,no,no,None,null,768,psycho,psycho,0w7rs,1,osweb,1.3.3,None,space,y,1,,,y,,,enter,None,816,27014,1316,,,169,,,3438,816,2,psycho,1.61616E+12,Star.jpg,1024,2,48000,-16,experiment,138,6796,Experiment 1,4961,odd,9984,45,221225,,45,45,31,206124,,,207456,,223070,,6533,9982,221737,,222254,6533,New experiment,1,18,80927,110,yes,1024,6668
16,16,736,736,white,138,Default,no,psycho,psycho,psycho,0,138,1,4961,OSWeb experiment,uniform,0,0,0,0,99,,easy,0,0,0,4,0,99,,,99,,99,99,,0,4,0,4,99,,99,4,,Fri Mar 19 2021 14:05:43 GMT+0000 (Greenwich Mean Time),The main experiment item,yes,,/Users/hannahwindmill/Desktop/OneDrive/PhD/Teaching/experiments/Z4,no,mono,no,18,no,black,no,no,None,null,768,psycho,psycho,0w7rs,1,osweb,1.3.3,None,space,y,1,,,y,,,enter,None,817,27014,1316,,,169,,,3438,817,2,psycho,1.61616E+12,Triangle.jpg,1024,2,48000,-16,experiment,138,6796,Experiment 1,4961,odd,9984,45,223074,,45,45,31,206124,,,207456,,224920,,6533,9982,223587,,224103,6533,New experiment,1,18,81744,111,yes,1024,6668
16,16,737,737,white,138,Default,no,psycho,psycho,psycho,0,138,1,4961,OSWeb experiment,uniform,0,0,0,0,99,0,difficult,0,0,0,4,0,99,0,0,99,0,100,99,0,0,4,0,4,99,0,99,4,s,Fri Mar 19 2021 14:05:43 GMT+0000 (Greenwich Mean Time),The main experiment item,yes,,/Users/hannahwindmill/Desktop/OneDrive/PhD/Teaching/experiments/Z4,no,mono,no,18,no,black,no,no,None,null,768,psycho,psycho,0w7rs,1,osweb,1.3.3,None,space,y,1,,,y,None,space,enter,None,816,27014,1316,,,169,816,3188,3438,817,2,psycho,1.61616E+12,Square.jpg,1024,2,48000,-16,experiment,138,6796,Experiment 1,4961,odd,9984,45,223074,228122,45,45,31,206124,,,207456,229452,230269,224921,6533,9982,223587,228636,224103,6533,New experiment,1,18,82560,112,yes,1024,6668
16,16,738,738,white,138,Default,no,psycho,psycho,psycho,0,138,1,4961,OSWeb experiment,uniform,0,0,0,0,99,1,difficult,0,0,0,4,0,99,1,1,99,1,101,99,1,0,4,0,4,99,1,99,4,,Fri Mar 19 2021 14:05:43 GMT+0000 (Greenwich Mean Time),The main experiment item,yes,,/Users/hannahwindmill/Desktop/OneDrive/PhD/Teaching/experiments/Z4,no,mono,no,18,no,black,no,no,None,null,768,psycho,psycho,0w7rs,1,osweb,1.3.3,None,space,y,1,,,y,None,space,enter,None,816,27014,1316,,,169,816,3188,3438,817,2,psycho,1.61616E+12,Circle.jpg,1024,2,48000,-16,experiment,138,6796,Experiment 1,4961,odd,9984,45,223074,230273,45,45,31,206124,,,207456,231602,232418,224921,6533,9982,223587,230786,224103,6533,New experiment,1,18,83376,113,yes,1024,6668
16,16,739,739,white,138,Default,no,psycho,psycho,psycho,0,138,1,4961,OSWeb experiment,uniform,0,0,0,0,99,2,difficult,0,0,0,4,0,99,2,2,99,2,102,99,2,0,4,0,4,99,2,99,4,,Fri Mar 19 2021 14:05:43 GMT+0000 (Greenwich Mean Time),The main experiment item,yes,,/Users/hannahwindmill/Desktop/OneDrive/PhD/Teaching/experiments/Z4,no,mono,no,18,no,black,no,no,None,null,768,psycho,psycho,0w7rs,1,osweb,1.3.3,None,space,y,1,,,y,None,space,enter,None,817,27014,1316,,,169,817,3188,3438,817,2,psycho,1.61616E+12,Star.jpg,1024,2,48000,-16,experiment,138,6796,Experiment 1,4961,odd,9984,45,223074,232423,45,45,31,206124,,,207456,233751,234568,224921,6533,9982,223587,232935,224103,6533,New experiment,1,18,84193,114,yes,1024,6668
16,16,739,739,white,138,Default,no,psycho,psycho,psycho,0,138,1,4961,OSWeb experiment,uniform,0,0,0,0,99,3,difficult,0,0,0,4,0,99,3,3,99,3,103,99,3,0,4,0,4,99,3,99,4,,Fri Mar 19 2021 14:05:43 GMT+0000 (Greenwich Mean Time),The main experiment item,yes,,/Users/hannahwindmill/Desktop/OneDrive/PhD/Teaching/experiments/Z4,no,mono,no,18,no,black,no,no,None,null,768,psycho,psycho,0w7rs,1,osweb,1.3.3,None,space,y,1,,,y,None,space,enter,None,816,27014,1316,,,169,816,3188,3438,817,2,psycho,1.61616E+12,Triangle.jpg,1024,2,48000,-16,experiment,138,6796,Experiment 1,4961,odd,9984,45,223074,234572,45,45,31,206124,,,207456,235901,236717,224921,6533,9982,223587,235084,224103,6533,New experiment,1,18,85009,115,yes,1024,6668
16,16,740,740,white,138,Default,no,psycho,psycho,psycho,0,138,1,4961,OSWeb experiment,uniform,0,0,0,0,99,4,difficult,0,0,0,4,0,99,4,4,99,4,104,99,4,0,4,0,4,99,4,99,4,,Fri Mar 19 2021 14:05:43 GMT+0000 (Greenwich Mean Time),The main experiment item,yes,,/Users/hannahwindmill/Desktop/OneDrive/PhD/Teaching/experiments/Z4,no,mono,no,18,no,black,no,no,None,null,768,psycho,psycho,0w7rs,1,osweb,1.3.3,None,space,y,1,,,y,None,space,enter,None,816,27014,1316,,,169,816,3188,3438,817,2,psycho,1.61616E+12,Triangle.jpg,1024,2,48000,-16,experiment,138,6796,Experiment 1,4961,odd,9984,45,223074,236721,45,45,31,206124,,,207456,238051,238867,224921,6533,9982,223587,237234,224103,6533,New experiment,1,18,85825,116,yes,1024,6668
15,15,741,741,white,138,Default,no,psycho,psycho,psycho,0,138,1,4961,OSWeb experiment,uniform,0,0,0,0,99,5,difficult,0,0,0,4,0,99,5,5,99,5,105,99,5,0,4,0,4,99,5,99,4,,Fri Mar 19 2021 14:05:43 GMT+0000 (Greenwich Mean Time),The main experiment item,yes,,/Users/hannahwindmill/Desktop/OneDrive/PhD/Teaching/experiments/Z4,no,mono,no,18,no,black,no,no,None,null,768,psycho,psycho,0w7rs,1,osweb,1.3.3,None,space,y,1,,,y,None,space,enter,None,816,27014,1316,,,169,816,3188,3438,817,2,psycho,1.61616E+12,Star.jpg,1024,2,48000,-16,experiment,138,6796,Experiment 1,4961,odd,9984,45,223074,238871,45,45,31,206124,,,207456,240200,241017,224921,6533,9982,223587,239384,224103,6533,New experiment,1,18,86641,117,yes,1024,6668
15,15,741,741,white,138,Default,no,psycho,psycho,psycho,0,138,1,4961,OSWeb experiment,uniform,0,0,0,0,99,6,difficult,0,0,0,4,0,99,6,6,99,6,106,99,6,0,4,0,4,99,6,99,4,,Fri Mar 19 2021 14:05:43 GMT+0000 (Greenwich Mean Time),The main experiment item,yes,,/Users/hannahwindmill/Desktop/OneDrive/PhD/Teaching/experiments/Z4,no,mono,no,18,no,black,no,no,None,null,768,psycho,psycho,0w7rs,1,osweb,1.3.3,None,space,y,1,,,y,None,space,enter,None,817,27014,1316,,,169,817,3188,3438,817,2,psycho,1.61616E+12,Triangle.jpg,1024,2,48000,-16,experiment,138,6796,Experiment 1,4961,odd,9984,45,223074,241021,45,45,31,206124,,,207456,242350,243167,224921,6533,9982,223587,241533,224103,6533,New experiment,1,18,87458,118,yes,1024,6668
15,15,742,742,white,138,Default,no,psycho,psycho,psycho,0,138,1,4961,OSWeb experiment,uniform,0,0,0,0,99,7,difficult,0,0,0,4,0,99,7,7,99,7,107,99,7,0,4,0,4,99,7,99,4,,Fri Mar 19 2021 14:05:43 GMT+0000 (Greenwich Mean Time),The main experiment item,yes,,/Users/hannahwindmill/Desktop/OneDrive/PhD/Teaching/experiments/Z4,no,mono,no,18,no,black,no,no,None,null,768,psycho,psycho,0w7rs,1,osweb,1.3.3,None,space,y,1,,,y,None,space,enter,None,817,27014,1316,,,169,817,3188,3438,817,2,psycho,1.61616E+12,Triangle.jpg,1024,2,48000,-16,experiment,138,6796,Experiment 1,4961,odd,9984,45,223074,243172,45,45,31,206124,,,207456,244499,245316,224921,6533,9982,223587,243683,224103,6533,New experiment,1,18,88275,119,yes,1024,6668
15,15,742,742,white,138,Default,no,psycho,psycho,psycho,0,138,1,4961,OSWeb experiment,uniform,0,0,0,0,99,8,difficult,0,0,0,4,0,99,8,8,99,8,108,99,8,0,4,0,4,99,8,99,4,,Fri Mar 19 2021 14:05:43 GMT+0000 (Greenwich Mean Time),The main experiment item,yes,,/Users/hannahwindmill/Desktop/OneDrive/PhD/Teaching/experiments/Z4,no,mono,no,18,no,black,no,no,None,null,768,psycho,psycho,0w7rs,1,osweb,1.3.3,None,space,y,1,,,y,None,space,enter,None,816,27014,1316,,,169,816,3188,3438,817,2,psycho,1.61616E+12,Star.jpg,1024,2,48000,-16,experiment,138,6796,Experiment 1,4961,odd,9984,45,223074,245320,45,45,31,206124,,,207456,246649,247465,224921,6533,9982,223587,245832,224103,6533,New experiment,1,18,89091,120,yes,1024,6668
15,15,743,743,white,138,Default,no,psycho,psycho,psycho,0,138,1,4961,OSWeb experiment,uniform,0,0,0,0,99,9,difficult,0,0,0,4,0,99,9,9,99,9,109,99,9,0,4,0,4,99,9,99,4,,Fri Mar 19 2021 14:05:43 GMT+0000 (Greenwich Mean Time),The main experiment item,yes,,/Users/hannahwindmill/Desktop/OneDrive/PhD/Teaching/experiments/Z4,no,mono,no,18,no,black,no,no,None,null,768,psycho,psycho,0w7rs,1,osweb,1.3.3,None,space,y,1,,,y,None,space,enter,None,817,27014,1316,,,169,817,3188,3438,817,2,psycho,1.61616E+12,Circle.jpg,1024,2,48000,-16,experiment,138,6796,Experiment 1,4961,odd,9984,45,223074,247470,45,45,31,206124,,,207456,248798,249615,224921,6533,9982,223587,247982,224103,6533,New experiment,1,18,89908,121,yes,1024,6668
16,16,737,737,white,138,Default,no,psycho,psycho,psycho,0,138,1,4961,OSWeb experiment,uniform,1,0,0,0,99,10,difficult,0,0,0,4,0,99,10,10,99,10,110,99,10,0,4,0,4,99,10,99,4,s,Fri Mar 19 2021 14:05:43 GMT+0000 (Greenwich Mean Time),The main experiment item,yes,,/Users/hannahwindmill/Desktop/OneDrive/PhD/Teaching/experiments/Z4,no,mono,no,18,no,black,no,no,None,null,768,psycho,psycho,0w7rs,1,osweb,1.3.3,s,space,y,1,,,y,s,space,enter,None,24,27014,1316,,,169,24,3188,3438,817,2,psycho,1.61616E+12,Square.jpg,1024,2,48000,-16,experiment,138,6796,Experiment 1,4961,odd,9984,45,223074,249625,45,45,31,206124,,,207456,250948,250981,224921,6533,9982,223587,250132,224103,6533,New experiment,1,19,89932,122,yes,1024,6668
16,16,732,732,white,138,Default,no,psycho,psycho,psycho,0,138,1,4961,OSWeb experiment,uniform,1,0,0,0,99,11,difficult,0,0,0,4,0,99,11,11,99,11,111,99,11,0,4,0,4,99,11,99,4,s,Fri Mar 19 2021 14:05:43 GMT+0000 (Greenwich Mean Time),The main experiment item,yes,,/Users/hannahwindmill/Desktop/OneDrive/PhD/Teaching/experiments/Z4,no,mono,no,18,no,black,no,no,None,null,768,psycho,psycho,0w7rs,1,osweb,1.3.3,s,space,y,1,,,y,s,space,enter,None,92,27014,1316,,,169,92,3188,3438,817,2,psycho,1.61616E+12,Square.jpg,1024,2,48000,-16,experiment,138,6796,Experiment 1,4961,odd,9984,45,223074,250986,45,45,31,206124,,,207456,252314,252414,224921,6533,9982,223587,251498,224103,6533,New experiment,1,20,90024,123,yes,1024,6668
16,16,733,733,white,138,Default,no,psycho,psycho,psycho,0,138,1,4961,OSWeb experiment,uniform,0,0,0,0,99,12,difficult,0,0,0,4,0,99,12,12,99,12,112,99,12,0,4,0,4,99,12,99,4,,Fri Mar 19 2021 14:05:43 GMT+0000 (Greenwich Mean Time),The main experiment item,yes,,/Users/hannahwindmill/Desktop/OneDrive/PhD/Teaching/experiments/Z4,no,mono,no,18,no,black,no,no,None,null,768,psycho,psycho,0w7rs,1,osweb,1.3.3,None,space,y,1,,,y,None,space,enter,None,816,27014,1316,,,169,816,3188,3438,817,2,psycho,1.61616E+12,Star.jpg,1024,2,48000,-16,experiment,138,6796,Experiment 1,4961,odd,9984,45,223074,252419,45,45,31,206124,,,207456,253748,254564,224921,6533,9982,223587,252931,224103,6533,New experiment,1,20,90840,124,yes,1024,6668
16,16,733,733,white,138,Default,no,psycho,psycho,psycho,0,138,1,4961,OSWeb experiment,uniform,0,0,0,0,99,13,difficult,0,0,0,4,0,99,13,13,99,13,113,99,13,0,4,0,4,99,13,99,4,,Fri Mar 19 2021 14:05:43 GMT+0000 (Greenwich Mean Time),The main experiment item,yes,,/Users/hannahwindmill/Desktop/OneDrive/PhD/Teaching/experiments/Z4,no,mono,no,18,no,black,no,no,None,null,768,psycho,psycho,0w7rs,1,osweb,1.3.3,None,space,y,1,,,y,None,space,enter,None,816,27014,1316,,,169,816,3188,3438,817,2,psycho,1.61616E+12,Star.jpg,1024,2,48000,-16,experiment,138,6796,Experiment 1,4961,odd,9984,45,223074,254568,45,45,31,206124,,,207456,255897,256714,224921,6533,9982,223587,255081,224103,6533,New experiment,1,20,91656,125,yes,1024,6668
16,16,729,729,white,138,Default,no,psycho,psycho,psycho,0,138,1,4961,OSWeb experiment,uniform,0,0,0,0,99,14,difficult,0,0,0,4,0,99,14,14,99,14,114,99,14,0,4,0,4,99,14,99,4,,Fri Mar 19 2021 14:05:43 GMT+0000 (Greenwich Mean Time),The main experiment item,yes,,/Users/hannahwindmill/Desktop/OneDrive/PhD/Teaching/experiments/Z4,no,mono,no,18,no,black,no,no,None,null,768,psycho,psycho,0w7rs,1,osweb,1.3.3,n,space,y,1,n,n,y,None,space,enter,None,165,27014,1316,2896,165,169,816,3188,3438,817,2,psycho,1.61616E+12,Diamond.jpg,1024,2,48000,-16,experiment,138,6796,Experiment 1,4961,odd,9984,45,223074,256718,45,45,31,206124,258863,261763,207456,258047,261929,224921,6533,9982,223587,257230,224103,6533,New experiment,1,20,92637,127,yes,1024,6668
16,16,730,730,white,138,Default,no,psycho,psycho,psycho,0,138,1,4961,OSWeb experiment,uniform,0,0,0,0,99,15,difficult,0,0,0,4,0,99,15,15,99,15,115,99,15,0,4,0,4,99,15,99,4,,Fri Mar 19 2021 14:05:43 GMT+0000 (Greenwich Mean Time),The main experiment item,yes,,/Users/hannahwindmill/Desktop/OneDrive/PhD/Teaching/experiments/Z4,no,mono,no,18,no,black,no,no,None,null,768,psycho,psycho,0w7rs,1,osweb,1.3.3,None,space,y,1,n,n,y,None,space,enter,None,817,27014,1316,2896,165,169,817,3188,3438,817,2,psycho,1.61616E+12,Star.jpg,1024,2,48000,-16,experiment,138,6796,Experiment 1,4961,odd,9984,45,223074,261933,45,45,31,206124,258863,261763,207456,263262,264079,224921,6533,9982,223587,262446,224103,6533,New experiment,1,20,93454,128,yes,1024,6668
16,16,731,731,white,138,Default,no,psycho,psycho,psycho,0,138,1,4961,OSWeb experiment,uniform,0,0,0,0,99,16,difficult,0,0,0,4,0,99,16,16,99,16,116,99,16,0,4,0,4,99,16,99,4,s,Fri Mar 19 2021 14:05:43 GMT+0000 (Greenwich Mean Time),The main experiment item,yes,,/Users/hannahwindmill/Desktop/OneDrive/PhD/Teaching/experiments/Z4,no,mono,no,18,no,black,no,no,None,null,768,psycho,psycho,0w7rs,1,osweb,1.3.3,None,space,y,1,n,n,y,None,space,enter,None,816,27014,1316,2896,165,169,816,3188,3438,817,2,psycho,1.61616E+12,Square.jpg,1024,2,48000,-16,experiment,138,6796,Experiment 1,4961,odd,9984,45,223074,264084,45,45,31,206124,258863,261763,207456,265412,266228,224921,6533,9982,223587,264596,224103,6533,New experiment,1,20,94270,129,yes,1024,6668
15,15,731,731,white,138,Default,no,psycho,psycho,psycho,0,138,1,4961,OSWeb experiment,uniform,0,0,0,0,99,17,difficult,0,0,0,4,0,99,17,17,99,17,117,99,17,0,4,0,4,99,17,99,4,,Fri Mar 19 2021 14:05:43 GMT+0000 (Greenwich Mean Time),The main experiment item,yes,,/Users/hannahwindmill/Desktop/OneDrive/PhD/Teaching/experiments/Z4,no,mono,no,18,no,black,no,no,None,null,768,psycho,psycho,0w7rs,1,osweb,1.3.3,None,space,y,1,n,n,y,None,space,enter,None,817,27014,1316,2896,165,169,817,3188,3438,817,2,psycho,1.61616E+12,Diamond.jpg,1024,2,48000,-16,experiment,138,6796,Experiment 1,4961,odd,9984,45,223074,266233,45,45,31,206124,258863,261763,207456,267561,268378,224921,6533,9982,223587,266745,224103,6533,New experiment,1,20,95087,130,yes,1024,6668
15,15,732,732,white,138,Default,no,psycho,psycho,psycho,0,138,1,4961,OSWeb experiment,uniform,0,0,0,0,99,18,difficult,0,0,0,4,0,99,18,18,99,18,118,99,18,0,4,0,4,99,18,99,4,,Fri Mar 19 2021 14:05:43 GMT+0000 (Greenwich Mean Time),The main experiment item,yes,,/Users/hannahwindmill/Desktop/OneDrive/PhD/Teaching/experiments/Z4,no,mono,no,18,no,black,no,no,None,null,768,psycho,psycho,0w7rs,1,osweb,1.3.3,None,space,y,1,n,n,y,None,space,enter,None,816,27014,1316,2896,165,169,816,3188,3438,817,2,psycho,1.61616E+12,Diamond.jpg,1024,2,48000,-16,experiment,138,6796,Experiment 1,4961,odd,9984,45,223074,268381,45,45,31,206124,258863,261763,207456,269711,270528,224921,6533,9982,223587,268895,224103,6533,New experiment,1,20,95903,131,yes,1024,6668
15,15,733,733,white,138,Default,no,psycho,psycho,psycho,0,138,1,4961,OSWeb experiment,uniform,0,0,0,0,99,19,difficult,0,0,0,4,0,99,19,19,99,19,119,99,19,0,4,0,4,99,19,99,4,,Fri Mar 19 2021 14:05:43 GMT+0000 (Greenwich Mean Time),The main experiment item,yes,,/Users/hannahwindmill/Desktop/OneDrive/PhD/Teaching/experiments/Z4,no,mono,no,18,no,black,no,no,None,null,768,psycho,psycho,0w7rs,1,osweb,1.3.3,None,space,y,1,n,n,y,None,space,enter,None,816,27014,1316,2896,165,169,816,3188,3438,817,2,psycho,1.61616E+12,Circle.jpg,1024,2,48000,-16,experiment,138,6796,Experiment 1,4961,odd,9984,45,223074,270531,45,45,31,206124,258863,261763,207456,271861,272677,224921,6533,9982,223587,271044,224103,6533,New experiment,1,20,96719,132,yes,1024,6668
15,15,733,733,white,138,Default,no,psycho,psycho,psycho,0,138,1,4961,OSWeb experiment,uniform,0,0,0,0,99,20,difficult,0,0,0,4,0,99,20,20,99,20,120,99,20,0,4,0,4,99,20,99,4,,Fri Mar 19 2021 14:05:43 GMT+0000 (Greenwich Mean Time),The main experiment item,yes,,/Users/hannahwindmill/Desktop/OneDrive/PhD/Teaching/experiments/Z4,no,mono,no,18,no,black,no,no,None,null,768,psycho,psycho,0w7rs,1,osweb,1.3.3,None,space,y,1,n,n,y,None,space,enter,None,817,27014,1316,2896,165,169,817,3188,3438,817,2,psycho,1.61616E+12,Triangle.jpg,1024,2,48000,-16,experiment,138,6796,Experiment 1,4961,odd,9984,45,223074,272681,45,45,31,206124,258863,261763,207456,274010,274827,224921,6533,9982,223587,273194,224103,6533,New experiment,1,20,97536,133,yes,1024,6668
15,15,734,734,white,138,Default,no,psycho,psycho,psycho,0,138,1,4961,OSWeb experiment,uniform,0,0,0,0,99,21,difficult,0,0,0,4,0,99,21,21,99,21,121,99,21,0,4,0,4,99,21,99,4,,Fri Mar 19 2021 14:05:43 GMT+0000 (Greenwich Mean Time),The main experiment item,yes,,/Users/hannahwindmill/Desktop/OneDrive/PhD/Teaching/experiments/Z4,no,mono,no,18,no,black,no,no,None,null,768,psycho,psycho,0w7rs,1,osweb,1.3.3,None,space,y,1,n,n,y,None,space,enter,None,816,27014,1316,2896,165,169,816,3188,3438,817,2,psycho,1.61616E+12,Diamond.jpg,1024,2,48000,-16,experiment,138,6796,Experiment 1,4961,odd,9984,45,223074,274837,45,45,31,206124,258863,261763,207456,276160,276976,224921,6533,9982,223587,275344,224103,6533,New experiment,1,20,98352,134,yes,1024,6668
15,15,735,735,white,138,Default,no,psycho,psycho,psycho,0,138,1,4961,OSWeb experiment,uniform,0,0,0,0,99,22,difficult,0,0,0,4,0,99,22,22,99,22,122,99,22,0,4,0,4,99,22,99,4,,Fri Mar 19 2021 14:05:43 GMT+0000 (Greenwich Mean Time),The main experiment item,yes,,/Users/hannahwindmill/Desktop/OneDrive/PhD/Teaching/experiments/Z4,no,mono,no,18,no,black,no,no,None,null,768,psycho,psycho,0w7rs,1,osweb,1.3.3,None,space,y,1,n,n,y,None,space,enter,None,817,27014,1316,2896,165,169,817,3188,3438,817,2,psycho,1.61616E+12,Diamond.jpg,1024,2,48000,-16,experiment,138,6796,Experiment 1,4961,odd,9984,45,223074,276981,45,45,31,206124,258863,261763,207456,278309,279126,224921,6533,9982,223587,277493,224103,6533,New experiment,1,20,99169,135,yes,1024,6668
15,15,735,735,white,138,Default,no,psycho,psycho,psycho,0,138,1,4961,OSWeb experiment,uniform,0,0,0,0,99,23,difficult,0,0,0,4,0,99,23,23,99,23,123,99,23,0,4,0,4,99,23,99,4,,Fri Mar 19 2021 14:05:43 GMT+0000 (Greenwich Mean Time),The main experiment item,yes,,/Users/hannahwindmill/Desktop/OneDrive/PhD/Teaching/experiments/Z4,no,mono,no,18,no,black,no,no,None,null,768,psycho,psycho,0w7rs,1,osweb,1.3.3,None,space,y,1,n,n,y,None,space,enter,None,817,27014,1316,2896,165,169,817,3188,3438,817,2,psycho,1.61616E+12,Diamond.jpg,1024,2,48000,-16,experiment,138,6796,Experiment 1,4961,odd,9984,45,223074,279130,45,45,31,206124,258863,261763,207456,280459,281276,224921,6533,9982,223587,279643,224103,6533,New experiment,1,20,99986,136,yes,1024,6668
15,15,736,736,white,138,Default,no,psycho,psycho,psycho,0,138,1,4961,OSWeb experiment,uniform,0,0,0,0,99,24,difficult,0,0,0,4,0,99,24,24,99,24,124,99,24,0,4,0,4,99,24,99,4,,Fri Mar 19 2021 14:05:43 GMT+0000 (Greenwich Mean Time),The main experiment item,yes,,/Users/hannahwindmill/Desktop/OneDrive/PhD/Teaching/experiments/Z4,no,mono,no,18,no,black,no,no,None,null,768,psycho,psycho,0w7rs,1,osweb,1.3.3,None,space,y,1,n,n,y,None,space,enter,None,816,27014,1316,2896,165,169,816,3188,3438,817,2,psycho,1.61616E+12,Diamond.jpg,1024,2,48000,-16,experiment,138,6796,Experiment 1,4961,odd,9984,45,223074,281279,45,45,31,206124,258863,261763,207456,282609,283425,224921,6533,9982,223587,281792,224103,6533,New experiment,1,20,100802,137,yes,1024,6668
14,14,736,736,white,138,Default,no,psycho,psycho,psycho,0,138,1,4961,OSWeb experiment,uniform,0,0,0,0,99,25,difficult,0,0,0,4,0,99,25,25,99,25,125,99,25,0,4,0,4,99,25,99,4,,Fri Mar 19 2021 14:05:43 GMT+0000 (Greenwich Mean Time),The main experiment item,yes,,/Users/hannahwindmill/Desktop/OneDrive/PhD/Teaching/experiments/Z4,no,mono,no,18,no,black,no,no,None,null,768,psycho,psycho,0w7rs,1,osweb,1.3.3,None,space,y,1,n,n,y,None,space,enter,None,817,27014,1316,2896,165,169,817,3188,3438,817,2,psycho,1.61616E+12,Diamond.jpg,1024,2,48000,-16,experiment,138,6796,Experiment 1,4961,odd,9984,45,223074,283429,45,45,31,206124,258863,261763,207456,284758,285575,224921,6533,9982,223587,283942,224103,6533,New experiment,1,20,101619,138,yes,1024,6668
14,14,737,737,white,138,Default,no,psycho,psycho,psycho,0,138,1,4961,OSWeb experiment,uniform,0,0,0,0,99,26,difficult,0,0,0,4,0,99,26,26,99,26,126,99,26,0,4,0,4,99,26,99,4,,Fri Mar 19 2021 14:05:43 GMT+0000 (Greenwich Mean Time),The main experiment item,yes,,/Users/hannahwindmill/Desktop/OneDrive/PhD/Teaching/experiments/Z4,no,mono,no,18,no,black,no,no,None,null,768,psycho,psycho,0w7rs,1,osweb,1.3.3,None,space,y,1,n,n,y,None,space,enter,None,801,27014,1316,2896,165,169,801,3188,3438,817,2,psycho,1.61616E+12,Circle.jpg,1024,2,48000,-16,experiment,138,6796,Experiment 1,4961,odd,9984,45,223074,285579,45,45,31,206124,258863,261763,207456,286907,287708,224921,6533,9982,223587,286091,224103,6533,New experiment,1,20,102420,139,yes,1024,6668
15,15,735,735,white,138,Default,no,psycho,psycho,psycho,0,138,1,4961,OSWeb experiment,uniform,1,0,0,0,99,27,difficult,0,0,0,4,0,99,27,27,99,27,127,99,27,0,4,0,4,99,27,99,4,s,Fri Mar 19 2021 14:05:43 GMT+0000 (Greenwich Mean Time),The main experiment item,yes,,/Users/hannahwindmill/Desktop/OneDrive/PhD/Teaching/experiments/Z4,no,mono,no,18,no,black,no,no,None,null,768,psycho,psycho,0w7rs,1,osweb,1.3.3,s,space,y,1,n,n,y,s,space,enter,None,483,27014,1316,2896,165,169,483,3188,3438,817,2,psycho,1.61616E+12,Square.jpg,1024,2,48000,-16,experiment,138,6796,Experiment 1,4961,odd,9984,45,223074,287711,45,45,31,206124,258863,261763,207456,289041,289524,224921,6533,9982,223587,288225,224103,6533,New experiment,1,21,102903,140,yes,1024,6668
15,15,736,736,white,138,Default,no,psycho,psycho,psycho,0,138,1,4961,OSWeb experiment,uniform,0,0,0,0,99,28,difficult,0,0,0,4,0,99,28,28,99,28,128,99,28,0,4,0,4,99,28,99,4,,Fri Mar 19 2021 14:05:43 GMT+0000 (Greenwich Mean Time),The main experiment item,yes,,/Users/hannahwindmill/Desktop/OneDrive/PhD/Teaching/experiments/Z4,no,mono,no,18,no,black,no,no,None,null,768,psycho,psycho,0w7rs,1,osweb,1.3.3,None,space,y,1,n,n,y,None,space,enter,None,815,27014,1316,2896,165,169,815,3188,3438,817,2,psycho,1.61616E+12,Diamond.jpg,1024,2,48000,-16,experiment,138,6796,Experiment 1,4961,odd,9984,45,223074,289528,45,45,31,206124,258863,261763,207456,290858,291674,224921,6533,9982,223587,290041,224103,6533,New experiment,1,21,103718,141,yes,1024,6668
15,15,732,732,white,138,Default,no,psycho,psycho,psycho,0,138,1,4961,OSWeb experiment,uniform,0,0,0,0,99,29,difficult,0,0,0,4,0,99,29,29,99,29,129,99,29,0,4,0,4,99,29,99,4,,Fri Mar 19 2021 14:05:43 GMT+0000 (Greenwich Mean Time),The main experiment item,yes,,/Users/hannahwindmill/Desktop/OneDrive/PhD/Teaching/experiments/Z4,no,mono,no,18,no,black,no,no,None,null,768,psycho,psycho,0w7rs,1,osweb,1.3.3,n,space,y,1,n,n,y,None,space,enter,None,170,27014,1316,1484,170,169,816,3188,3438,817,2,psycho,1.61616E+12,Circle.jpg,1024,2,48000,-16,experiment,138,6796,Experiment 1,4961,odd,9984,45,223074,291677,45,45,31,206124,293823,295323,207456,293007,295506,224921,6533,9982,223587,292190,224103,6533,New experiment,1,21,104704,143,yes,1024,6668
15,15,733,733,white,138,Default,no,psycho,psycho,psycho,0,138,1,4961,OSWeb experiment,uniform,0,0,0,0,99,30,difficult,0,0,0,4,0,99,30,30,99,30,130,99,30,0,4,0,4,99,30,99,4,,Fri Mar 19 2021 14:05:43 GMT+0000 (Greenwich Mean Time),The main experiment item,yes,,/Users/hannahwindmill/Desktop/OneDrive/PhD/Teaching/experiments/Z4,no,mono,no,18,no,black,no,no,None,null,768,psycho,psycho,0w7rs,1,osweb,1.3.3,None,space,y,1,n,n,y,None,space,enter,None,816,27014,1316,1484,170,169,816,3188,3438,817,2,psycho,1.61616E+12,Triangle.jpg,1024,2,48000,-16,experiment,138,6796,Experiment 1,4961,odd,9984,45,223074,295516,45,45,31,206124,293823,295323,207456,296840,297656,224921,6533,9982,223587,296023,224103,6533,New experiment,1,21,105520,144,yes,1024,6668
14,14,733,733,white,138,Default,no,psycho,psycho,psycho,0,138,1,4961,OSWeb experiment,uniform,0,0,0,0,99,31,difficult,0,0,0,4,0,99,31,31,99,31,131,99,31,0,4,0,4,99,31,99,4,,Fri Mar 19 2021 14:05:43 GMT+0000 (Greenwich Mean Time),The main experiment item,yes,,/Users/hannahwindmill/Desktop/OneDrive/PhD/Teaching/experiments/Z4,no,mono,no,18,no,black,no,no,None,null,768,psycho,psycho,0w7rs,1,osweb,1.3.3,None,space,y,1,n,n,y,None,space,enter,None,816,27014,1316,1484,170,169,816,3188,3438,817,2,psycho,1.61616E+12,Circle.jpg,1024,2,48000,-16,experiment,138,6796,Experiment 1,4961,odd,9984,45,223074,297660,45,45,31,206124,293823,295323,207456,298989,299805,224921,6533,9982,223587,298173,224103,6533,New experiment,1,21,106336,145,yes,1024,6668
14,14,734,734,white,138,Default,no,psycho,psycho,psycho,0,138,1,4961,OSWeb experiment,uniform,0,0,0,0,99,32,difficult,0,0,0,4,0,99,32,32,99,32,132,99,32,0,4,0,4,99,32,99,4,,Fri Mar 19 2021 14:05:43 GMT+0000 (Greenwich Mean Time),The main experiment item,yes,,/Users/hannahwindmill/Desktop/OneDrive/PhD/Teaching/experiments/Z4,no,mono,no,18,no,black,no,no,None,null,768,psycho,psycho,0w7rs,1,osweb,1.3.3,None,space,y,1,n,n,y,None,space,enter,None,815,27014,1316,1484,170,169,815,3188,3438,817,2,psycho,1.61616E+12,Triangle.jpg,1024,2,48000,-16,experiment,138,6796,Experiment 1,4961,odd,9984,45,223074,299809,45,45,31,206124,293823,295323,207456,301123,301938,224921,6533,9982,223587,300322,224103,6533,New experiment,1,21,107151,146,yes,1024,6668
14,14,734,734,white,138,Default,no,psycho,psycho,psycho,0,138,1,4961,OSWeb experiment,uniform,0,0,0,0,99,33,difficult,0,0,0,4,0,99,33,33,99,33,133,99,33,0,4,0,4,99,33,99,4,,Fri Mar 19 2021 14:05:43 GMT+0000 (Greenwich Mean Time),The main experiment item,yes,,/Users/hannahwindmill/Desktop/OneDrive/PhD/Teaching/experiments/Z4,no,mono,no,18,no,black,no,no,None,null,768,psycho,psycho,0w7rs,1,osweb,1.3.3,None,space,y,1,n,n,y,None,space,enter,None,817,27014,1316,1484,170,169,817,3188,3438,817,2,psycho,1.61616E+12,Star.jpg,1024,2,48000,-16,experiment,138,6796,Experiment 1,4961,odd,9984,45,223074,301942,45,45,31,206124,293823,295323,207456,303271,304088,224921,6533,9982,223587,302455,224103,6533,New experiment,1,21,107968,147,yes,1024,6668
15,15,732,732,white,138,Default,no,psycho,psycho,psycho,0,138,1,4961,OSWeb experiment,uniform,1,0,0,0,99,34,difficult,0,0,0,4,0,99,34,34,99,34,134,99,34,0,4,0,4,99,34,99,4,s,Fri Mar 19 2021 14:05:43 GMT+0000 (Greenwich Mean Time),The main experiment item,yes,,/Users/hannahwindmill/Desktop/OneDrive/PhD/Teaching/experiments/Z4,no,mono,no,18,no,black,no,no,None,null,768,psycho,psycho,0w7rs,1,osweb,1.3.3,s,space,y,1,n,n,y,s,space,enter,None,297,27014,1316,1484,170,169,297,3188,3438,817,2,psycho,1.61616E+12,Square.jpg,1024,2,48000,-16,experiment,138,6796,Experiment 1,4961,odd,9984,45,223074,304092,45,45,31,206124,293823,295323,207456,305421,305721,224921,6533,9982,223587,304605,224103,6533,New experiment,1,22,108265,148,yes,1024,6668
15,15,728,728,white,138,Default,no,psycho,psycho,psycho,0,138,1,4961,OSWeb experiment,uniform,1,0,0,0,99,35,difficult,0,0,0,4,0,99,35,35,99,35,135,99,35,0,4,0,4,99,35,99,4,s,Fri Mar 19 2021 14:05:43 GMT+0000 (Greenwich Mean Time),The main experiment item,yes,,/Users/hannahwindmill/Desktop/OneDrive/PhD/Teaching/experiments/Z4,no,mono,no,18,no,black,no,no,None,null,768,psycho,psycho,0w7rs,1,osweb,1.3.3,s,space,y,1,n,n,y,s,space,enter,None,274,27014,1316,1484,170,169,274,3188,3438,817,2,psycho,1.61616E+12,Square.jpg,1024,2,48000,-16,experiment,138,6796,Experiment 1,4961,odd,9984,45,223074,305725,45,45,31,206124,293823,295323,207456,307054,307337,224921,6533,9982,223587,306238,224103,6533,New experiment,1,23,108539,149,yes,1024,6668
16,16,726,726,white,138,Default,no,psycho,psycho,psycho,0,138,1,4961,OSWeb experiment,uniform,1,0,0,0,99,36,difficult,0,0,0,4,0,99,36,36,99,36,136,99,36,0,4,0,4,99,36,99,4,s,Fri Mar 19 2021 14:05:43 GMT+0000 (Greenwich Mean Time),The main experiment item,yes,,/Users/hannahwindmill/Desktop/OneDrive/PhD/Teaching/experiments/Z4,no,mono,no,18,no,black,no,no,None,null,768,psycho,psycho,0w7rs,1,osweb,1.3.3,s,space,y,1,n,n,y,s,space,enter,None,382,27014,1316,1484,170,169,382,3188,3438,817,2,psycho,1.61616E+12,Square.jpg,1024,2,48000,-16,experiment,138,6796,Experiment 1,4961,odd,9984,45,223074,307341,45,45,31,206124,293823,295323,207456,308670,309054,224921,6533,9982,223587,307854,224103,6533,New experiment,1,24,108921,150,yes,1024,6668
16,16,727,727,white,138,Default,no,psycho,psycho,psycho,0,138,1,4961,OSWeb experiment,uniform,0,0,0,0,99,37,difficult,0,0,0,4,0,99,37,37,99,37,137,99,37,0,4,0,4,99,37,99,4,,Fri Mar 19 2021 14:05:43 GMT+0000 (Greenwich Mean Time),The main experiment item,yes,,/Users/hannahwindmill/Desktop/OneDrive/PhD/Teaching/experiments/Z4,no,mono,no,18,no,black,no,no,None,null,768,psycho,psycho,0w7rs,1,osweb,1.3.3,None,space,y,1,n,n,y,None,space,enter,None,816,27014,1316,1484,170,169,816,3188,3438,817,2,psycho,1.61616E+12,Star.jpg,1024,2,48000,-16,experiment,138,6796,Experiment 1,4961,odd,9984,45,223074,309066,45,45,31,206124,293823,295323,207456,310387,311203,224921,6533,9982,223587,309570,224103,6533,New experiment,1,24,109737,151,yes,1024,6668
16,16,727,727,white,138,Default,no,psycho,psycho,psycho,0,138,1,4961,OSWeb experiment,uniform,0,0,0,0,99,38,difficult,0,0,0,4,0,99,38,38,99,38,138,99,38,0,4,0,4,99,38,99,4,,Fri Mar 19 2021 14:05:43 GMT+0000 (Greenwich Mean Time),The main experiment item,yes,,/Users/hannahwindmill/Desktop/OneDrive/PhD/Teaching/experiments/Z4,no,mono,no,18,no,black,no,no,None,null,768,psycho,psycho,0w7rs,1,osweb,1.3.3,None,space,y,1,n,n,y,None,space,enter,None,817,27014,1316,1484,170,169,817,3188,3438,817,2,psycho,1.61616E+12,Triangle.jpg,1024,2,48000,-16,experiment,138,6796,Experiment 1,4961,odd,9984,45,223074,311208,45,45,31,206124,293823,295323,207456,312536,313353,224921,6533,9982,223587,311720,224103,6533,New experiment,1,24,110554,152,yes,1024,6668
16,16,728,728,white,138,Default,no,psycho,psycho,psycho,0,138,1,4961,OSWeb experiment,uniform,0,0,0,0,99,39,difficult,0,0,0,4,0,99,39,39,99,39,139,99,39,0,4,0,4,99,39,99,4,,Fri Mar 19 2021 14:05:43 GMT+0000 (Greenwich Mean Time),The main experiment item,yes,,/Users/hannahwindmill/Desktop/OneDrive/PhD/Teaching/experiments/Z4,no,mono,no,18,no,black,no,no,None,null,768,psycho,psycho,0w7rs,1,osweb,1.3.3,None,space,y,1,n,n,y,None,space,enter,None,816,27014,1316,1484,170,169,816,3188,3438,817,2,psycho,1.61616E+12,Star.jpg,1024,2,48000,-16,experiment,138,6796,Experiment 1,4961,odd,9984,45,223074,313356,45,45,31,206124,293823,295323,207456,314686,315502,224921,6533,9982,223587,313870,224103,6533,New experiment,1,24,111370,153,yes,1024,6668
16,16,728,728,white,138,Default,no,psycho,psycho,psycho,0,138,1,4961,OSWeb experiment,uniform,0,0,0,0,99,40,difficult,0,0,0,4,0,99,40,40,99,40,140,99,40,0,4,0,4,99,40,99,4,,Fri Mar 19 2021 14:05:43 GMT+0000 (Greenwich Mean Time),The main experiment item,yes,,/Users/hannahwindmill/Desktop/OneDrive/PhD/Teaching/experiments/Z4,no,mono,no,18,no,black,no,no,None,null,768,psycho,psycho,0w7rs,1,osweb,1.3.3,None,space,y,1,n,n,y,None,space,enter,None,801,27014,1316,1484,170,169,801,3188,3438,817,2,psycho,1.61616E+12,Triangle.jpg,1024,2,48000,-16,experiment,138,6796,Experiment 1,4961,odd,9984,45,223074,315506,45,45,31,206124,293823,295323,207456,316835,317636,224921,6533,9982,223587,316019,224103,6533,New experiment,1,24,112171,154,yes,1024,6668
15,15,729,729,white,138,Default,no,psycho,psycho,psycho,0,138,1,4961,OSWeb experiment,uniform,0,0,0,0,99,41,difficult,0,0,0,4,0,99,41,41,99,41,141,99,41,0,4,0,4,99,41,99,4,,Fri Mar 19 2021 14:05:43 GMT+0000 (Greenwich Mean Time),The main experiment item,yes,,/Users/hannahwindmill/Desktop/OneDrive/PhD/Teaching/experiments/Z4,no,mono,no,18,no,black,no,no,None,null,768,psycho,psycho,0w7rs,1,osweb,1.3.3,None,space,y,1,n,n,y,None,space,enter,None,817,27014,1316,1484,170,169,817,3188,3438,817,2,psycho,1.61616E+12,Star.jpg,1024,2,48000,-16,experiment,138,6796,Experiment 1,4961,odd,9984,45,223074,317640,45,45,31,206124,293823,295323,207456,318968,319785,224921,6533,9982,223587,318152,224103,6533,New experiment,1,24,112988,155,yes,1024,6668
15,15,730,730,white,138,Default,no,psycho,psycho,psycho,0,138,1,4961,OSWeb experiment,uniform,0,0,0,0,99,42,difficult,0,0,0,4,0,99,42,42,99,42,142,99,42,0,4,0,4,99,42,99,4,,Fri Mar 19 2021 14:05:43 GMT+0000 (Greenwich Mean Time),The main experiment item,yes,,/Users/hannahwindmill/Desktop/OneDrive/PhD/Teaching/experiments/Z4,no,mono,no,18,no,black,no,no,None,null,768,psycho,psycho,0w7rs,1,osweb,1.3.3,None,space,y,1,n,n,y,None,space,enter,None,816,27014,1316,1484,170,169,816,3188,3438,817,2,psycho,1.61616E+12,Circle.jpg,1024,2,48000,-16,experiment,138,6796,Experiment 1,4961,odd,9984,45,223074,319795,45,45,31,206124,293823,295323,207456,321118,321935,224921,6533,9982,223587,320302,224103,6533,New experiment,1,24,113804,156,yes,1024,6668
15,15,730,730,white,138,Default,no,psycho,psycho,psycho,0,138,1,4961,OSWeb experiment,uniform,0,0,0,0,99,43,difficult,0,0,0,4,0,99,43,43,99,43,143,99,43,0,4,0,4,99,43,99,4,,Fri Mar 19 2021 14:05:43 GMT+0000 (Greenwich Mean Time),The main experiment item,yes,,/Users/hannahwindmill/Desktop/OneDrive/PhD/Teaching/experiments/Z4,no,mono,no,18,no,black,no,no,None,null,768,psycho,psycho,0w7rs,1,osweb,1.3.3,None,space,y,1,n,n,y,None,space,enter,None,817,27014,1316,1484,170,169,817,3188,3438,817,2,psycho,1.61616E+12,Star.jpg,1024,2,48000,-16,experiment,138,6796,Experiment 1,4961,odd,9984,45,223074,321938,45,45,31,206124,293823,295323,207456,323267,324084,224921,6533,9982,223587,322451,224103,6533,New experiment,1,24,114621,157,yes,1024,6668
